timestamp,angular_velocity_x,angular_velocity_y,angular_velocity_z,linear_acceleration_x,linear_acceleration_y,linear_acceleration_z
1694507002216427182,-0.0009213679586537182,-0.0016240788390859962,0.0013392646797001362,0.48210418224334717,0.07125720381736755,-9.780722618103027
1694507002226472421,0.0008041136898100376,0.004600193351507187,0.0008572807419113815,0.5564713478088379,0.023593459278345108,-9.847392082214355
1694507002236996012,-0.0023591588251292706,-0.0003052056999877095,-0.00042061039130203426,0.4862707257270813,0.10107362270355225,-9.77899169921875
1694507002257494241,-0.0004136433417443186,-0.002321560401469469,-0.0014043693663552403,0.5260840654373169,-0.008869882673025131,-9.798916816711426
1694507002257504240,0.0009161204798147082,0.0014388597337529063,-0.00011910438479389995,0.5495420694351196,0.012625010684132576,-9.770086288452148
1694507002266581087,-0.0027948797214776278,0.0005319422925822437,0.0010022445349022746,0.48278912901878357,0.044162455946207047,-9.8290376663208
1694507002276512891,-0.0018900777213275433,5.547226464841515e-05,-0.00023632941883988678,0.5822190642356873,0.1164313554763794,-9.87339973449707
1694507002286415213,-0.0015395439695566893,-0.000704774574842304,0.0005384226096794009,0.559567391872406,0.015177542343735695,-9.780420303344727
1694507002296395356,-0.0013656147057190537,-0.0019540544599294662,0.0003326120786368847,0.5208879709243774,0.04584892466664314,-9.781115531921387
1694507002306685328,-0.0012123639462515712,-0.00021283594833221287,9.174909064313397e-05,0.4878385066986084,0.0011444352567195892,-9.750571250915527
1694507002316536229,0.0015557745937258005,-0.0007994824554771185,-0.0024668409023433924,0.5604307055473328,0.020529551431536674,-9.77975845336914
1694507002326653939,-0.0025902758352458477,-0.0022284146398305893,-0.0005328691913746297,0.568243682384491,-0.049039002507925034,-9.797639846801758
1694507002336986247,-0.0009841725695878267,0.0013590938178822398,-0.0018594583962112665,0.5846639275550842,0.001692742109298706,-9.745628356933594
1694507002346713068,0.000234882696531713,0.002556572202593088,-0.001040393253788352,0.5682878494262695,-0.05091700702905655,-9.839042663574219
1694507002356636884,0.0006818725378252566,0.0015139360912144184,0.002221363829448819,0.5030062198638916,-0.0007046535611152649,-9.907883644104004
1694507002366597564,6.355198274832219e-05,0.00033950424403883517,-0.003215227974578738,0.6023121476173401,0.008025573566555977,-9.853670120239258
1694507002388685228,0.0017248161602765322,-0.003105870680883527,-0.0020150067284703255,0.5604404807090759,0.03147995471954346,-9.777756690979004
1694507002388737950,0.0006308468873612583,0.001001969096250832,-0.0012946886708959937,0.6259450316429138,0.07786321640014648,-9.81266975402832
1694507002396647830,0.0013868401292711496,-0.0009409226477146149,-0.0035972292535007,0.4914270043373108,0.06123161315917969,-9.800408363342285
1694507002406405497,-0.000782524177338928,-0.0022086615208536386,0.0014581384602934122,0.5710674524307251,0.026322893798351288,-9.824538230895996
1694507002416410876,0.0017489788588136435,-0.000840621767565608,-0.0035798384342342615,0.5358569025993347,-0.005186067894101143,-9.773874282836914
1694507002426513129,-0.0004922534571960568,0.002705348189920187,-0.0027266168035566807,0.5814738869667053,0.04123646765947342,-9.828301429748535
1694507002436576512,0.0027557327412068844,-9.11977986106649e-06,-5.9253979998175055e-05,0.5758988261222839,-0.030388977378606796,-9.83432674407959
1694507002446554445,0.0016041320050135255,0.00078501709504053,0.0010214309440925717,0.5235614776611328,-0.017538385465741158,-9.835949897766113
1694507002456570863,0.0019409158267080784,-0.0005863881669938564,-0.004054854158312082,0.4828796088695526,0.0826704204082489,-9.82851505279541
1694507002466797600,0.0017584681045264006,-0.0039657363668084145,-0.0018517067655920982,0.44803810119628906,0.058556389063596725,-9.801925659179688
1694507002476769487,-0.0027056802064180374,0.00029429359710775316,-8.745019295020029e-05,0.6330416202545166,-0.025400575250387192,-9.802987098693848
1694507002486494645,-0.0026977492962032557,-0.001378586981445551,0.00035691887023858726,0.559319794178009,0.03354935348033905,-9.765223503112793
1694507002496721227,-0.0013113076565787196,-0.002728329971432686,-0.002773994579911232,0.5941689014434814,0.007649971172213554,-9.758731842041016
1694507002506698191,0.00026411519502289593,0.0024507653433829546,-0.0006784569704905152,0.6160876154899597,0.10723558813333511,-9.808051109313965
1694507002516932351,-0.00373801589012146,0.001228142762556672,-0.0009349723695777357,0.528580367565155,-0.0010085143148899078,-9.758345603942871
1694507002527099937,0.0023305872455239296,-0.0018462608568370342,-0.0028159182984381914,0.6275752186775208,0.056718505918979645,-9.719913482666016
1694507002546758839,0.0004892571596428752,0.001781479804776609,0.0008050910546444356,0.49754324555397034,0.13434843719005585,-9.8541841506958
1694507002550747193,0.0032635219395160675,0.0018416247330605984,0.0015578015008941293,0.4843897521495819,0.07181458920240402,-9.777030944824219
1694507002556683947,-0.0011932154884561896,0.0043691666796803474,0.0017910317983478308,0.4741783142089844,0.013855370692908764,-9.832549095153809
1694507002566536033,-0.0010866924421861768,0.0034841038286685944,-0.0026361646596342325,0.5267899632453918,-0.01533602923154831,-9.79345703125
1694507002576397526,0.0013196581276133657,0.0008087690221145749,-4.989390799892135e-05,0.5987476706504822,-0.062151309102773666,-9.726346015930176
1694507002586558228,0.0022629823070019484,-0.0008151475340127945,-0.0006007853662595153,0.5754625201225281,0.0870743989944458,-9.762748718261719
1694507002598019749,-0.0012803785502910614,-0.0005890543106943369,0.0003491900279186666,0.6009832620620728,-0.048388127237558365,-9.818230628967285
1694507002615347950,-0.0008876636857166886,0.00046623212983831763,0.0004512355662882328,0.5821330547332764,-0.009521936997771263,-9.835946083068848
1694507002618528398,0.0027408157475292683,0.0006898923893459141,-0.0020516524091362953,0.522416889667511,-0.016521766781806946,-9.684292793273926
1694507002630200049,9.396493260283023e-05,-0.001791514572687447,-0.0029106205329298973,0.5641663670539856,-0.02290079928934574,-9.775686264038086
1694507002637319083,-0.0033507023472338915,-0.0007756786653771996,-0.0014284932985901833,0.49355512857437134,-0.009823735803365707,-9.785419464111328
1694507002647046835,-0.0009492264362052083,0.004706331063061953,0.0014795870520174503,0.5832465887069702,0.05904018506407738,-9.75557804107666
1694507002657031746,0.0007052159635350108,0.0003053449036087841,0.0010838209418579936,0.4811311662197113,0.05532260239124298,-9.768563270568848
1694507002666528069,-0.00041404098737984896,-0.003093255218118429,-0.0008390162838622928,0.5724747180938721,0.024408498778939247,-9.79894733428955
1694507002676509764,-0.0009822348365560174,-0.0006454421672970057,-0.0014734362484887242,0.5353565216064453,0.10524611175060272,-9.775257110595703
1694507002686408672,-0.0022804539185017347,-0.0026482620742172003,-0.00014765655214432627,0.5407686829566956,-0.05063733458518982,-9.816399574279785
1694507002696336882,0.001065707765519619,-0.002131448592990637,0.002025919733569026,0.5085114240646362,0.05435566231608391,-9.729801177978516
1694507002706422995,-0.0006297795916907489,0.00037483376218006015,-0.002250049728900194,0.6086782217025757,0.057727303355932236,-9.713065147399902
1694507002716353814,-0.0006831406499259174,0.0010399213060736656,-0.0024739899672567844,0.5769942998886108,0.07057742774486542,-9.763629913330078
1694507002726382986,-0.002747125690802932,0.0018953521503135562,0.001595952082425356,0.5350479483604431,0.0324411615729332,-9.735071182250977
1694507002736724420,-0.0019350651418790221,0.002250902121886611,0.0005683003691956401,0.5922148823738098,0.01679445058107376,-9.747910499572754
1694507002746401141,0.0006173272267915308,-0.001059523317962885,0.0017620731377974153,0.5261497497558594,-0.038560330867767334,-9.808767318725586
1694507002756363937,-0.0005788616836071014,-0.0009959242306649685,-0.0009838133119046688,0.4949273467063904,-0.009900456294417381,-9.807640075683594
1694507002766452956,-0.002523558447137475,-0.0004744924954138696,0.00044872044236399233,0.5574827194213867,0.0796845331788063,-9.76640796661377
1694507002776409467,0.0015198522014543414,0.00111882493365556,-0.0002404013357590884,0.5558412075042725,0.08037105202674866,-9.776806831359863
1694507002786382316,0.0016781182494014502,-0.00012994275311939418,0.00019225288997404277,0.5589042901992798,0.026446862146258354,-9.80266284942627
1694507002796327358,0.0012717231875285506,0.002079288475215435,-0.00013485057570505887,0.6203551888465881,0.029408374801278114,-9.780115127563477
1694507002806341074,-0.0002667595399543643,0.001478460500948131,0.0017014495097100735,0.5702231526374817,0.04364016652107239,-9.775789260864258
1694507002816332355,0.001168268034234643,-0.00037928385427221656,0.0011472508776932955,0.5594906210899353,-0.03151903301477432,-9.833227157592773
1694507002826558810,0.003204258158802986,-0.0011278040474280715,-0.0020296138245612383,0.5141183137893677,0.015251982025802135,-9.747895240783691
1694507002836572862,0.0008640422602184117,0.0001492574519943446,-0.0010569668374955654,0.5371236801147461,0.011439818888902664,-9.778351783752441
1694507002846426692,-0.004095553420484066,0.0004894352168776095,0.0003463447792455554,0.5322201251983643,0.014276031404733658,-9.742337226867676
1694507002856399633,0.0007450000266544521,0.0020882990211248398,0.0009990873513743281,0.5428850650787354,0.04207918047904968,-9.809149742126465
1694507002866439762,0.0008957150857895613,-0.0029934917110949755,-0.0008817561902105808,0.6038765907287598,0.0029549729079008102,-9.770627975463867
1694507002876371722,-0.002500812988728285,-0.0005340168136171997,0.0011017783544957638,0.5611050724983215,0.10564622282981873,-9.781020164489746
1694507002886381106,-0.0015150598483160138,-0.0005144106107763946,0.0009345391299575567,0.5600439310073853,0.07603272795677185,-9.79285717010498
1694507002896531886,-0.0011610689107328653,0.00166598754003644,-0.00037333372165448964,0.5081096291542053,-0.030042119324207306,-9.853004455566406
1694507002906455565,-0.0014862767420709133,-0.00020605092868208885,4.468415136216208e-05,0.5427657961845398,-0.022101614624261856,-9.776392936706543
1694507002916367347,0.0007110880687832832,-0.0024411557242274284,-0.00041585162398405373,0.5159692764282227,-0.024551130831241608,-9.775508880615234
1694507002926386662,0.0025691932532936335,-0.0018008153419941664,0.000539409345947206,0.5561405420303345,0.0062613654881715775,-9.831611633300781
1694507002936501987,0.0025971292052417994,-0.0009741829708218575,0.00038387568201869726,0.6336982250213623,0.036846645176410675,-9.71178913116455
1694507002946398070,0.0030239056795835495,-0.0009978155139833689,-0.002713410183787346,0.5822119116783142,0.0826050192117691,-9.757699966430664
1694507002956356229,0.00042674026917666197,0.0014994920929893851,-0.0003607588878367096,0.5039737820625305,0.020656095817685127,-9.769673347473145
1694507002966424248,0.0007657870301045477,0.0023968711029738188,0.0032112521585077047,0.5634474754333496,-0.041851311922073364,-9.760943412780762
1694507002976329721,-7.16983777238056e-05,0.0001651828788453713,-0.0030399274546653032,0.5289328098297119,0.00926150567829609,-9.765955924987793
1694507002986332492,-0.0010499831987544894,0.0038457480259239674,-1.4577734873455483e-05,0.49378764629364014,0.00047944486141204834,-9.70369815826416
1694507002996405988,-0.0008514252258464694,-0.0013812384568154812,0.002337806858122349,0.5429565906524658,0.053440436720848083,-9.88709545135498
1694507003006348427,-0.0022961909417062998,-0.0013106275582686067,-0.0003703300899360329,0.5561293959617615,0.0691143199801445,-9.827396392822266
1694507003016558148,0.0020304869394749403,0.0017694372218102217,0.0019526215037330985,0.6167346239089966,0.08825381100177765,-9.67446517944336
1694507003026364019,-8.568881457904354e-05,-0.0006852808292023838,0.0012444095918908715,0.5279154777526855,0.03042025864124298,-9.824492454528809
1694507003036414473,-0.00098298245575279,-0.00040825779433362186,0.0011402590898796916,0.4968680739402771,0.04605202376842499,-9.745264053344727
1694507003046485695,0.00022693403298035264,0.0004889116389676929,-0.00027045467868447304,0.5182324647903442,-0.010884720832109451,-9.765113830566406
1694507003056583612,0.002726687816902995,-0.000763622869271785,-0.0011438351357355714,0.49260154366493225,0.006840097717940807,-9.736316680908203
1694507003066302363,-0.004036374855786562,0.000353522424120456,0.002242498332634568,0.5599086880683899,0.03086576610803604,-9.73497486114502
1694507003076363984,0.0004416311567183584,-0.0009385144803673029,0.004340749233961105,0.5357232689857483,-0.07807871699333191,-9.813018798828125
1694507003086354819,0.001895792200230062,0.001468574977479875,-0.001516925636678934,0.5564735531806946,0.030650492757558823,-9.791509628295898
1694507003096375539,-0.001976066268980503,0.0013644377468153834,0.0002254162245662883,0.5490380525588989,-0.024585088714957237,-9.789444923400879
1694507003106342968,0.0007069460698403418,-0.0017227936768904328,-0.0006821452989242971,0.5410643219947815,0.08091509342193604,-9.759992599487305
1694507003116329060,-0.0015257272170856595,-0.00017080525867640972,-0.0009660420473664999,0.5427954792976379,0.0016407324001193047,-9.808900833129883
1694507003126360473,-0.0007384733762592077,-0.00010429020039737225,0.0004850572731811553,0.523327112197876,0.02146940678358078,-9.797821998596191
1694507003136349758,-0.0007490474381484091,-0.0009850863134488463,0.0015756661305204034,0.4750460982322693,0.04866503179073334,-9.812828063964844
1694507003146331340,0.0008223497425206006,0.000816268555354327,0.0025731404311954975,0.4980751872062683,0.05336173623800278,-9.742084503173828
1694507003156719389,-0.0013207071460783482,-0.003849075874313712,-0.0017895452911034226,0.5153189301490784,0.011860056780278683,-9.851248741149902
1694507003166354029,-0.0010917282197624445,-0.0002671224938239902,0.000801839807536453,0.5794257521629333,-0.03572254627943039,-9.685273170471191
1694507003176434922,-0.0011447739088907838,0.0006853943923488259,0.0013292634394019842,0.6080405712127686,0.020585257560014725,-9.745975494384766
1694507003186437549,0.0005962557625025511,-0.0005548927001655102,0.003134931204840541,0.5715465545654297,-0.033537402749061584,-9.74634838104248
1694507003196376716,-0.00213265442289412,0.0004966033739037812,-0.0004915738245472312,0.5943431854248047,-0.0038745366036891937,-9.737139701843262
1694507003206421553,-0.0008705742657184601,-0.0006781852571293712,-0.00043107866076752543,0.5356383919715881,0.023428764194250107,-9.771414756774902
1694507003216505887,0.0022631839383393526,-0.0017891598399728537,0.00154568359721452,0.5417969226837158,0.0437067411839962,-9.844128608703613
1694507003226433050,0.0031818347051739693,-0.002787090837955475,0.0008236956782639027,0.545691728591919,-0.06681172549724579,-9.814553260803223
1694507003236468633,0.0005096234381198883,0.00041034334572032094,0.000435597583418712,0.5271568894386292,-0.021405862644314766,-9.68720817565918
1694507003246479692,0.0007868951070122421,7.53130589146167e-05,-0.002884583780542016,0.5134748816490173,-0.01150276605039835,-9.737010955810547
1694507003256401658,0.001114811166189611,0.001407036790624261,0.0030928340274840593,0.5354573130607605,0.06311529874801636,-9.712528228759766
1694507003266411707,0.0001886618119897321,-0.0002921884006354958,0.00356166809797287,0.6366779804229736,0.04405269771814346,-9.856890678405762
1694507003276381415,0.0013570042792707682,-0.0009509846568107605,-0.0011471468023955822,0.5842038989067078,0.025979984551668167,-9.788518905639648
1694507003286402477,0.0036025934386998415,0.0025322067085653543,0.0002607140049804002,0.5027838945388794,-0.01211747620254755,-9.814958572387695
1694507003296373655,-0.0007448771502822638,0.0018027550540864468,-0.0018599852919578552,0.6026304960250854,0.030215857550501823,-9.826695442199707
1694507003306516635,-0.0017922883853316307,0.0002104407176375389,0.0034714285284280777,0.4755757451057434,0.02042648196220398,-9.734103202819824
1694507003316397191,0.000376345677068457,0.0020979142282158136,0.000230120393098332,0.4673287570476532,0.08634239435195923,-9.768681526184082
1694507003326377153,0.002673828275874257,0.0001915660104714334,0.00305166095495224,0.5287114977836609,0.018426425755023956,-9.74400520324707
1694507003336949359,0.00032042694510892034,0.0022911676205694675,0.00010500539792701602,0.514759361743927,0.08396638184785843,-9.823716163635254
1694507003348327544,0.002481764880940318,-0.0022732021752744913,0.001792615046724677,0.5156466364860535,0.02129935473203659,-9.759561538696289
1694507003356592613,-0.003703961381688714,-0.0002930246409960091,0.0016006826190277934,0.5599292516708374,-0.018264101818203926,-9.772208213806152
1694507003366429363,0.001858629402704537,0.001955667743459344,-0.0002497978857718408,0.5035107135772705,-0.02177024632692337,-9.82803726196289
1694507003376574398,0.0015940098091959953,-1.859317853813991e-05,-0.000873678014613688,0.5661641955375671,0.07513860613107681,-9.832941055297852
1694507003386539955,-0.0011888311710208654,0.0015238112537190318,-0.0019634689670056105,0.5246682167053223,0.029205206781625748,-9.76783561706543
1694507003396697187,-0.004093250259757042,-7.691334030823782e-05,0.00121607247274369,0.5325233340263367,0.05240967497229576,-9.718545913696289
1694507003406752224,6.423851300496608e-05,-0.0006354558281600475,0.000607566034886986,0.5566567778587341,-0.010295356623828411,-9.78298568725586
1694507003416576966,0.00018038589041680098,0.0005017709918320179,-0.001167653826996684,0.6291571259498596,0.05543161928653717,-9.789205551147461
1694507003426459930,-1.062688352249097e-05,0.00022610924497712404,0.0021445618476718664,0.5416238307952881,0.07938498258590698,-9.768683433532715
1694507003436544862,-0.0015212231082841754,0.0021442819852381945,-0.001553771668113768,0.5428048372268677,0.023071618750691414,-9.896404266357422
1694507003446422963,-0.0015778897795826197,0.0001237866817973554,-0.003663979936391115,0.5005566477775574,0.0047135185450315475,-9.820332527160645
1694507003456471283,-0.00029074784833937883,-0.0019237970700487494,-0.00017236625717487186,0.5452113151550293,0.08602733165025711,-9.818485260009766
1694507003466414761,0.003360604401677847,-0.0008601376903243363,0.0004727400082629174,0.558669924736023,0.06815293431282043,-9.741436004638672
1694507003476444723,0.001337240799330175,-0.0010928111150860786,-0.0013737916015088558,0.6130552291870117,0.026279687881469727,-9.71740436553955
1694507003486406002,-0.0016795910196378827,-0.00043542144703678787,-0.002173415385186672,0.43603426218032837,0.04408334195613861,-9.78045654296875
1694507003496421754,-0.0023165985476225615,0.0016419102903455496,0.0004709517234005034,0.619853138923645,0.06253034621477127,-9.802873611450195
1694507003506484228,-0.0006520323222503066,-0.0004815429274458438,-0.002075133379548788,0.4918113648891449,0.035198479890823364,-9.751976013183594
1694507003516539628,-0.0005422912072390318,0.000883204338606447,0.0006142263300716877,0.5328842997550964,0.01725982129573822,-9.818265914916992
1694507003526484889,-2.9016884582233615e-05,0.0006993648130446672,-2.4164080969057977e-05,0.5612463355064392,0.014374508522450924,-9.778472900390625
1694507003536484808,-0.000984671525657177,0.0033535517286509275,0.0001442579523427412,0.565045177936554,0.02045973762869835,-9.776172637939453
1694507003546605804,-0.005870650988072157,0.002187211997807026,-0.0008944833534769714,0.5571913123130798,0.018394984304904938,-9.741416931152344
1694507003557259619,-0.003059223061427474,-1.0258107067784294e-05,-0.001064433716237545,0.5780363082885742,-0.05357825756072998,-9.81427001953125
1694507003566654857,-0.0009584587533026934,-0.001962746726348996,9.56759467953816e-05,0.5455038547515869,-0.06647685170173645,-9.80042552947998
1694507003576455990,-0.0006321243126876652,0.00015316055214498192,0.002748386934399605,0.488298237323761,-0.003172333352267742,-9.770875930786133
1694507003586537446,0.0009435335523448884,-0.0008174989488907158,-0.00028049241518601775,0.6204659342765808,0.02050606720149517,-9.734772682189941
1694507003596360267,0.0011028131702914834,0.00031483863131143153,-0.0017685210332274437,0.6233330368995667,-0.02641734667122364,-9.738982200622559
1694507003606365400,-0.0002673482522368431,-0.002037293743342161,0.000928545487113297,0.5585315227508545,0.004257620312273502,-9.80217170715332
1694507003616576053,-0.000752091989852488,-0.0011271805269643664,4.6981906052678823e-05,0.5295450687408447,-0.050146933645009995,-9.8060941696167
1694507003626643087,-0.0009875672403723001,0.000327264831867069,-0.001397406216710806,0.5379493832588196,-0.04277079552412033,-9.84985065460205
1694507003636402643,-0.00029951156466268003,-0.0002935969387181103,0.002831873716786504,0.5025852918624878,0.0018321042880415916,-9.829347610473633
1694507003646643538,-0.002539173699915409,0.0011214838596060872,0.0007734359824098647,0.53394615650177,-0.038314543664455414,-9.783145904541016
1694507003656466595,-0.0013667467283084989,0.0009195113088935614,0.00028815233963541687,0.574790894985199,-0.03216802701354027,-9.726031303405762
1694507003666506536,-0.0008067997987382114,-0.0020916855428367853,0.003388606244698167,0.4957243502140045,0.00973467156291008,-9.860722541809082
1694507003676424043,-0.002619413658976555,0.0002117413969244808,0.001363154617138207,0.5416805148124695,0.01617598906159401,-9.768644332885742
1694507003686462071,-0.0004682578146457672,-0.0010551048908382654,0.001680202898569405,0.5682063698768616,-0.05554986000061035,-9.782889366149902
1694507003696415038,0.001307053491473198,0.0010172179900109768,0.0014886673307046294,0.5690337419509888,-0.05084969475865364,-9.765889167785645
1694507003706557240,-0.00019789965881500393,0.0017918033991008997,-0.0007137132924981415,0.5309339761734009,0.019059553742408752,-9.756166458129883
1694507003717513683,-0.00015533763507846743,0.0005022967234253883,-0.0009211507276631892,0.5519552826881409,0.01989881508052349,-9.834300994873047
1694507003726584883,0.0007250425405800343,-0.0009547577938064933,0.0010747343767434359,0.52829909324646,0.07338100671768188,-9.782718658447266
1694507003737243134,0.0009924176847562194,0.004855306353420019,-7.894411101005971e-05,0.5856538414955139,0.037707921117544174,-9.81409740447998
1694507003746779342,-0.000141526383231394,-0.00013255898375064135,-0.002517429180443287,0.4838412404060364,0.04000786691904068,-9.783856391906738
1694507003756672179,-0.0022078221663832664,3.3211905247299e-05,0.002510818187147379,0.5215158462524414,0.06465598940849304,-9.815723419189453
1694507003766538485,0.0010789638618007302,0.000897456833627075,-0.0005573108792304993,0.5469480156898499,0.01881958730518818,-9.871152877807617
1694507003776622675,0.00019572398741729558,-0.00018247503612656146,0.0003539618046488613,0.5759018659591675,-0.009401921182870865,-9.777775764465332
1694507003786605243,0.001766351517289877,0.0004663160943891853,-0.002256447682157159,0.5007071495056152,0.04852547496557236,-9.785377502441406
1694507003796449744,0.0021409320179373026,0.001432248973287642,0.003912709653377533,0.5275908708572388,0.03107297047972679,-9.820159912109375
1694507003806675122,0.0009936783462762833,-0.0020475706551223993,0.0012329501332715154,0.5363423824310303,0.0212041437625885,-9.768832206726074
1694507003816430962,0.002096691867336631,-0.003280943026766181,0.00033399544190615416,0.5724450349807739,0.05850808694958687,-9.799859046936035
1694507003826653361,-0.0005062148557044566,-0.002914204727858305,0.0013539863284677267,0.5380666255950928,0.005816618911921978,-9.817310333251953
1694507003836521244,3.8376780139515176e-05,0.0019206140423193574,-0.0013896244345232844,0.5402461886405945,0.06213490664958954,-9.744328498840332
1694507003846535796,0.0007299215067178011,0.0007790005765855312,0.00023529115424025804,0.5526655912399292,0.0293496772646904,-9.781901359558105
1694507003856443809,0.0029626383911818266,0.0008801720105111599,-0.0027813161723315716,0.5286701917648315,-0.03740963712334633,-9.82266616821289
1694507003866622774,-0.0019277447136119008,-0.001552347093820572,0.002759461058303714,0.5316192507743835,0.11633704602718353,-9.775083541870117
1694507003876472638,-0.00011181193258380517,0.0024720123037695885,-0.0013988540740683675,0.5677876472473145,-0.002917960286140442,-9.853074073791504
1694507003886475138,-0.0013981888769194484,-0.0016204328276216984,-0.0004408703825902194,0.5158740282058716,-0.03916303813457489,-9.79434871673584
1694507003896522735,0.001149845076724887,0.0004585646092891693,-0.0024322322569787502,0.596260130405426,0.00028710439801216125,-9.838973045349121
1694507003906536277,-0.0004405004146974534,-0.0012961295433342457,8.95344783202745e-05,0.5776184797286987,0.01596095971763134,-9.818395614624023
1694507003916402853,-0.0004815254360437393,-0.0006480826996266842,-0.00200244365260005,0.60939621925354,0.08142997324466705,-9.765742301940918
1694507003926386681,0.0008196023409254849,7.226590969366953e-05,0.0008216658607125282,0.5024858713150024,0.01300576701760292,-9.812650680541992
1694507003936459386,-0.00025699700927361846,-0.00013140853843651712,-0.0005159836146049201,0.6544263958930969,0.04481003060936928,-9.86931037902832
1694507003946362245,0.001594984671100974,-0.0042460304684937,0.0012697925558313727,0.5510188341140747,0.07518542557954788,-9.792901039123535
1694507003956416102,-0.00191252410877496,-0.00026359569164924324,0.00326413637958467,0.5547338128089905,0.023280136287212372,-9.739943504333496
1694507003966448634,-0.0014066175790503621,2.2272732167039067e-05,0.002788491314277053,0.5494451522827148,-0.09199078381061554,-9.768472671508789
1694507003976472438,0.0007323417230509222,-0.001953869592398405,0.001157198566943407,0.5300195217132568,-0.02630366012454033,-9.747434616088867
1694507003986783377,0.0010970404837280512,0.001641692128032446,-0.0009320965618826449,0.6085853576660156,0.024635285139083862,-9.759416580200195
1694507003996494732,-0.0005988555494695902,0.003244421910494566,-0.002226173412054777,0.5544210076332092,0.020474113523960114,-9.782641410827637
1694507004008827170,-0.0009225666872225702,0.0001876262394944206,0.000781342969276011,0.597190797328949,-0.00883985310792923,-9.774599075317383
1694507004016715548,-0.0015958596486598253,-0.002024807035923004,-9.228165436070412e-05,0.5406955480575562,0.006764024030417204,-9.789360046386719
1694507004026732118,-0.0019926209934055805,0.0016615805216133595,-0.0021305454429239035,0.5109366774559021,-0.041326552629470825,-9.791545867919922
1694507004036489186,-0.0003834893286693841,-0.0034631460439413786,0.0020099275279790163,0.555812418460846,-0.021178511902689934,-9.742300033569336
1694507004046408880,-0.00012858195987064391,0.0004043303488288075,0.0011372113367542624,0.5452442765235901,0.09247907251119614,-9.787459373474121
1694507004056395865,0.000874761666636914,0.0013812882825732231,-0.002061927691102028,0.5741421580314636,-0.04133131727576256,-9.792926788330078
1694507004066398348,0.0019338098354637623,-0.0012213134905323386,-0.002738096984103322,0.5236550569534302,-0.026065457612276077,-9.799185752868652
1694507004076424578,0.0005091644125059247,-0.000637681398075074,-0.0006451937952078879,0.5574106574058533,0.03366335481405258,-9.804259300231934
1694507004086389104,1.584360870765522e-05,0.000988958403468132,0.0006061216699890792,0.5127405524253845,0.04722268879413605,-9.85503101348877
1694507004096642324,-0.0013188245939090848,0.0006300608511082828,-0.0031127645634114742,0.524935245513916,0.030679527670145035,-9.755845069885254
1694507004106367319,0.0004394412680994719,-0.0009635901660658419,-0.0006175165763124824,0.47463101148605347,0.019701547920703888,-9.73474407196045
1694507004116441589,-0.0007499564089812338,-0.0018333751941099763,-0.0002125263272318989,0.6059203743934631,0.013755585998296738,-9.822186470031738
1694507004126376539,0.00035236828261986375,0.0002849401789717376,-0.0002243170456495136,0.5689426064491272,-0.010584142990410328,-9.760982513427734
1694507004137249404,0.00010029121767729521,-0.002163419034332037,-0.0002620701561681926,0.5693461894989014,0.04900490865111351,-9.81396484375
1694507004146370044,0.0009919875301420689,-0.0015279968501999974,0.0015185773372650146,0.5101661086082458,0.047597408294677734,-9.778043746948242
1694507004156458815,-0.0010182238183915615,0.00012230507854837924,-0.002220413414761424,0.5292384028434753,0.020327512174844742,-9.762500762939453
1694507004166425541,-0.0015166591620072722,-0.0011172409867867827,0.0016897683963179588,0.5742592811584473,0.05441597104072571,-9.817776679992676
1694507004176392511,-2.4953542379080318e-05,-0.0008161584846675396,-0.0002920652332250029,0.5289331674575806,0.025324523448944092,-9.822480201721191
1694507004186401413,0.00012646897812373936,-0.000586784677579999,0.0020732134580612183,0.5424113869667053,0.0797441154718399,-9.864672660827637
1694507004196364514,-0.0017883589025586843,0.00015602141502313316,-0.0015172415878623724,0.5456071496009827,0.0049106767401099205,-9.806516647338867
1694507004206448099,0.001093409489840269,0.0013921716017648578,0.0022460310719907284,0.5030710697174072,-0.014683961868286133,-9.830233573913574
1694507004216355900,-0.0009367503807879984,0.0004464940866455436,0.0017202743329107761,0.5751727223396301,0.014381819404661655,-9.72223949432373
1694507004226389411,0.0008705955697223544,0.0019229694735258818,-0.0015012241201475263,0.5460020899772644,0.13240763545036316,-9.735182762145996
1694507004236720552,-0.002262872876599431,0.000842499197460711,-0.0016538196941837668,0.5853381156921387,0.08855755627155304,-9.754024505615234
1694507004246402638,0.0004469706618692726,-0.0006731735775247216,0.00015883958258200437,0.5204913020133972,-0.032805826514959335,-9.742060661315918
1694507004256408089,0.0009908839128911495,4.42309319623746e-05,-0.0011679648887366056,0.5722670555114746,-0.008856742642819881,-9.755777359008789
1694507004266448947,0.0011389366118237376,-0.00011295683361822739,-0.0009158932371065021,0.5714477896690369,-0.03502647951245308,-9.771760940551758
1694507004276644344,-0.0008324701339006424,0.0001286972255911678,0.002263211878016591,0.594143271446228,0.0049452753737568855,-9.77568244934082
1694507004286423570,0.0003076559223700315,-0.00030648050596937537,-9.650875290390104e-05,0.5781956315040588,0.09245358407497406,-9.860136032104492
1694507004296548332,0.0022175139747560024,-0.0010130336740985513,-0.0008837750647217035,0.5201653838157654,0.009319273754954338,-9.742595672607422
1694507004306517811,0.0020682967733591795,-0.0025812028907239437,-0.0016902083298191428,0.5643600225448608,0.008780688047409058,-9.848289489746094
1694507004316428064,0.002732020104303956,0.0004749549552798271,0.004534786567091942,0.5441887378692627,-0.009747081436216831,-9.75908088684082
1694507004326457432,0.0019240343244746327,-0.001145383925177157,0.0024242796935141087,0.4604520797729492,0.03665086627006531,-9.818878173828125
1694507004336526052,-0.001114532584324479,0.0026999323163181543,0.0015610666014254093,0.5194702744483948,0.03721938282251358,-9.80286979675293
1694507004346556090,0.0007326198392547667,0.0005513218929991126,0.0006934857228770852,0.4966457486152649,0.08624593913555145,-9.868356704711914
1694507004356402204,0.0002580615982878953,3.104507050011307e-05,-7.364661723840982e-05,0.4421667158603668,-0.015459130518138409,-9.831652641296387
1694507004366484441,-0.002044087741523981,-0.0005328924744389951,0.001383175258524716,0.6198650002479553,0.04387754201889038,-9.763748168945312
1694507004376462864,-0.0003261650272179395,0.0010667808819562197,-0.0007953227031975985,0.48415878415107727,0.030619367957115173,-9.82581901550293
1694507004386433864,0.0028196657076478004,-0.0009003142477013171,-0.00015452942170668393,0.5582989454269409,0.0533212348818779,-9.82932186126709
1694507004396607975,-0.0016184222185984254,-0.0007618635427206755,-0.001698800828307867,0.517256498336792,0.028994180262088776,-9.806123733520508
1694507004406546714,-0.00016380941087845713,-0.00017823633970692754,-4.289593925932422e-05,0.6072880625724792,-0.0022080140188336372,-9.834592819213867
1694507004416447873,-0.00038806363590992987,0.0025934597942978144,0.001909797778353095,0.5134065747261047,0.0274929478764534,-9.792964935302734
1694507004426391383,-0.000477880472317338,-0.000561560969799757,-0.001015802496112883,0.5168622732162476,-0.008233340457081795,-9.75981616973877
1694507004436798539,-0.002428642474114895,-0.0007890365668572485,-0.0018397597596049309,0.5421422123908997,0.003254706971347332,-9.750694274902344
1694507004446575600,-0.0009336611838079989,-0.0018920388538390398,-0.0013981389347463846,0.4600631296634674,0.00044998712837696075,-9.723784446716309
1694507004456498941,0.001366246840916574,7.455069862771779e-06,0.0004182322009000927,0.45733779668807983,0.05174131691455841,-9.824573516845703
1694507004466704423,0.0006343817804008722,0.0011651390232145786,0.0015108998632058501,0.5066088438034058,0.013921571895480156,-9.802617073059082
1694507004476436215,-0.0005894044879823923,0.0011103458236902952,0.0022971646394580603,0.571997880935669,0.08121851086616516,-9.801421165466309
1694507004486748792,0.0029813768342137337,-0.002805301919579506,-0.0013503259979188442,0.6127500534057617,0.04585639014840126,-9.830364227294922
1694507004508443287,-0.0016455722507089376,-0.0010070063872262836,-0.000942608923651278,0.5430626273155212,0.10985276848077774,-9.77487850189209
1694507004508448690,0.0005911857588216662,-2.708232932491228e-05,0.002386027481406927,0.5397236347198486,0.003642789088189602,-9.761239051818848
1694507004516439101,-0.0015351417241618037,0.0005655933055095375,-0.003283558413386345,0.6063534021377563,-0.08649663627147675,-9.787568092346191
1694507004526552363,-0.0014686291106045246,0.001297519076615572,-0.0003292917681392282,0.5719763040542603,0.02434338815510273,-9.778484344482422
1694507004536453580,-0.002461760537698865,-0.00046836197725497186,0.0005111007485538721,0.45531904697418213,0.056407272815704346,-9.786348342895508
1694507004546532481,0.0016100569628179073,-0.00022389678633771837,0.0007613117923028767,0.5334778428077698,-0.01017822977155447,-9.800948143005371
1694507004556501860,-0.001215625903569162,0.0016064658993855119,-0.0018555186688899994,0.5174434185028076,-0.08637360483407974,-9.737234115600586
1694507004566549501,0.0016298226546496153,4.105870903003961e-05,0.0008846840937621891,0.5630450248718262,0.05480845272541046,-9.731209754943848
1694507004577263497,0.0015520891174674034,0.00048360216896981,-9.198850602842867e-05,0.5122706890106201,-0.1505691558122635,-9.771707534790039
1694507004586591873,0.001332923537120223,-0.0005060568219050765,0.002249975223094225,0.538196325302124,0.006634140852838755,-9.79167366027832
1694507004596411223,-0.0011294506257399917,0.0016956278122961521,0.0017102599376812577,0.6149874925613403,0.006656175944954157,-9.847737312316895
1694507004606684067,0.0020256885327398777,-0.0010235587833449244,-0.00045325272367335856,0.5324960350990295,-0.01037572417408228,-9.759681701660156
1694507004616492629,-0.0021659783087670803,-0.0011091119376942515,0.0012970301322638988,0.5639979839324951,-0.029284831136465073,-9.82509994506836
1694507004626581835,0.0019282075809314847,-0.0008676008437760174,0.0005913462373428047,0.5070139169692993,0.025546085089445114,-9.825385093688965
1694507004636454212,0.0013226367300376296,0.0006255643093027174,-9.564225911162794e-05,0.4704737961292267,-0.022505391389131546,-9.769584655761719
1694507004646619429,0.0021753814071416855,0.0014524050056934357,0.002244797768071294,0.5478869080543518,0.0028693880885839462,-9.706125259399414
1694507004656646678,-0.0008358659106306732,0.0030002775602042675,0.0012912808451801538,0.5470293164253235,0.04761768877506256,-9.768194198608398
1694507004666434780,-0.0011852432508021593,0.0017854798352345824,-0.0006102316547185183,0.5067411661148071,0.14727357029914856,-9.713664054870605
1694507004676390555,-0.0015400470001623034,0.0002187774225603789,0.001441191416233778,0.4931733310222626,-0.043593183159828186,-9.796722412109375
1694507004686443614,-0.00012522660836111754,0.0010296362452208996,2.5021512556122616e-05,0.5139105319976807,-0.0188833549618721,-9.75986385345459
1694507004696443154,-0.0010985068511217833,-0.0005938620888628066,-0.0012054007966071367,0.5080738663673401,0.009922477416694164,-9.75931453704834
1694507004706425599,0.0033318274654448032,0.0004792351392097771,-0.002845780225470662,0.524847149848938,-0.0657913088798523,-9.79803466796875
1694507004716321404,0.0010004242649301887,-0.0008304821676574647,0.0009874989045783877,0.6531158685684204,-0.03151683881878853,-9.760638236999512
1694507004726798497,0.0009175647865049541,-0.001940856222063303,-0.0007937662303447723,0.5405000448226929,0.0162922702729702,-9.806449890136719
1694507004741080031,0.002148098312318325,-0.0031021195463836193,0.001051875064149499,0.5722286701202393,0.004604130983352661,-9.752198219299316
1694507004746540786,-3.553191345417872e-05,0.0018839960684999824,-0.0011745691299438477,0.45464128255844116,-0.017657987773418427,-9.786041259765625
1694507004756425828,-0.001227168831974268,-0.0010086905676871538,0.00014765546075068414,0.5128528475761414,0.024143293499946594,-9.793264389038086
1694507004766478867,0.0019253370119258761,0.00038885630783624947,-6.676822522422299e-06,0.47410354018211365,-0.03275282308459282,-9.873106956481934
1694507004776449917,-0.0020414432510733604,0.0006239812355488539,-0.001542566460557282,0.5174615383148193,0.033226147294044495,-9.767105102539062
1694507004786473374,-0.0011294260621070862,-0.0004648082540370524,-0.0011074088979512453,0.4393572211265564,0.062162138521671295,-9.725359916687012
1694507004796382753,-0.0008370227296836674,-0.00011928966705454513,0.00045663455966860056,0.5227851867675781,-0.001478683203458786,-9.797701835632324
1694507004806523458,0.0004927784902974963,-0.001615978078916669,0.0017665341729298234,0.5849431753158569,-0.006784426048398018,-9.77446174621582
1694507004816380692,-9.1098940174561e-05,0.0007863186183385551,0.0016524791717529297,0.4882369637489319,-0.017346857115626335,-9.748913764953613
1694507004826606628,-0.00047293718671426177,-7.873011782066897e-06,0.00044008358963765204,0.5574151873588562,0.04305423051118851,-9.842527389526367
1694507004836683062,-0.0013419699389487505,-0.0004430990375112742,-0.0018039357382804155,0.5093642473220825,0.07007202506065369,-9.807854652404785
1694507004846692302,0.001061470014974475,0.001859244192019105,0.00024807231966406107,0.5153396129608154,0.07675305008888245,-9.790834426879883
1694507004856425750,0.001456173020415008,-0.0054213437251746655,0.0015121641336008906,0.5871003270149231,-0.016438256949186325,-9.828184127807617
1694507004866534846,-0.0002863469417206943,0.0013207991141825914,0.0005835384363308549,0.5120576024055481,-0.04901474341750145,-9.7587308883667
1694507004876337063,-0.002173503628000617,-0.0009098256705328822,-0.0008554928353987634,0.535297691822052,0.03105732426047325,-9.838103294372559
1694507004886476575,-0.0020898457150906324,0.0024839492980390787,0.0033562539611011744,0.4969319999217987,0.01616976410150528,-9.75639820098877
1694507004896306175,-0.0030913767404854298,0.0005206225323490798,-0.0007200606632977724,0.5027862787246704,0.016157712787389755,-9.829268455505371
1694507004906506946,0.001685739029198885,-0.001357765169814229,-0.0001835834700614214,0.5185271501541138,-0.035217396914958954,-9.743025779724121
1694507004916434761,-0.00019728577171918005,-0.0018792226910591125,0.0005066182930022478,0.48153355717658997,0.010587373748421669,-9.794182777404785
1694507004926570761,0.001811336725950241,0.00011498467938508838,-0.0011192311067134142,0.6044342517852783,-0.08690029382705688,-9.777548789978027
1694507004936386886,-0.0015391535125672817,0.0015841956483200192,-0.002779081929475069,0.47082650661468506,0.09648576378822327,-9.759583473205566
1694507004946533586,0.0002417374198557809,0.0005098055116832256,0.0013086959952488542,0.5761659145355225,-0.01828213408589363,-9.7767333984375
1694507004956377193,-0.0004789826343767345,1.1625088518485427e-05,0.0006357426173053682,0.6002194881439209,-0.05774873495101929,-9.809557914733887
1694507004966410384,0.0012518339790403843,-0.0022583063691854477,-0.0013362508034333587,0.5131608247756958,-0.026368962600827217,-9.762323379516602
1694507004976352853,-0.0008697326411493123,0.0004649464972317219,-0.00037549392436631024,0.5074092149734497,0.0720822736620903,-9.829553604125977
1694507004986468422,-0.0012266981648281217,-0.0017893556505441666,-0.00029519444797188044,0.5075178742408752,0.07418856769800186,-9.803844451904297
1694507004996731725,-0.0010786926141008735,0.00032897706842049956,-0.0013853433774784207,0.5305721163749695,0.06116636097431183,-9.743400573730469
1694507005007137074,-0.00024192352429963648,-0.0010610823519527912,-0.0005936695379205048,0.5135648846626282,-0.014091677963733673,-9.845135688781738
1694507005016419323,-0.003544872161000967,-0.003325071418657899,0.001167162205092609,0.3950684666633606,0.07087527960538864,-9.798664093017578
1694507005026445610,-0.0006588880205526948,-0.0022210979368537664,-0.0006392967188730836,0.5194905996322632,0.037664223462343216,-9.782258987426758
1694507005036485075,0.0006411749636754394,-0.0006933872355148196,0.0007028270047158003,0.5530532598495483,0.056312739849090576,-9.755995750427246
1694507005046410051,-0.001112193102017045,0.0008962143328972161,-0.0003087411751039326,0.548625111579895,0.019670136272907257,-9.832494735717773
1694507005056416397,0.0005296856397762895,-0.0025745693128556013,0.00035282690078020096,0.5108782649040222,0.015764940530061722,-9.736668586730957
1694507005066466347,0.0002027879236266017,0.004142490681260824,0.0009278440847992897,0.5492554306983948,0.0170883908867836,-9.763482093811035
1694507005076440982,-0.0030209978576749563,0.0006236651679500937,0.0007854134892113507,0.4731481969356537,-0.004583004862070084,-9.823809623718262
1694507005086407959,-0.0029868423007428646,0.0007075757603161037,-0.0005705307703465223,0.3777344822883606,-0.034237831830978394,-9.792125701904297
1694507005096354340,0.0020387989934533834,0.0011435507331043482,-0.003950682934373617,0.5468255877494812,-0.021416684612631798,-9.779353141784668
1694507005106367685,-0.0008142937440425158,-0.00011707632802426815,-0.0004025480302516371,0.528754711151123,0.008044603280723095,-9.740973472595215
1694507005116313293,0.0003383113944437355,-0.000795595406088978,-0.003227478126063943,0.5136854648590088,0.03863536939024925,-9.746916770935059
1694507005126296835,-0.00024109760124702007,-0.0003399701090529561,-0.00154784694314003,0.5353400707244873,-0.01522097084671259,-9.81649112701416
1694507005136442276,0.0012223724042996764,-0.0018819028045982122,-0.0024705345276743174,0.49460601806640625,-0.009330038912594318,-9.82196044921875
1694507005146324696,0.0009273269097320735,0.0027153408154845238,0.002357383258640766,0.48353737592697144,0.02510128542780876,-9.802546501159668
1694507005156514754,-0.003184088971465826,-0.0006150858826003969,0.0020277020521461964,0.5051379799842834,0.04814040660858154,-9.741780281066895
1694507005166390901,0.000779933703597635,0.0006620057392865419,0.0023634624667465687,0.5023768544197083,4.940107464790344e-05,-9.780351638793945
1694507005176413177,0.000950006244238466,-0.0018915183609351516,-0.0017691749380901456,0.5835342407226562,-0.03951247036457062,-9.80141544342041
1694507005186359505,-0.0008881143294274807,0.0004165994469076395,-0.0013686965685337782,0.4796659052371979,0.09454914927482605,-9.845786094665527
1694507005196297754,0.0028924113139510155,-0.0014151443028822541,-0.00011624798207776621,0.5171828269958496,0.0030961453448981047,-9.79039192199707
1694507005206401504,-0.0017323995707556605,0.0016920859925448895,0.0007746932096779346,0.5805422067642212,0.04308389872312546,-9.839447021484375
1694507005216358620,-0.0022455533035099506,-0.002768461126834154,-0.0003055505803786218,0.590627908706665,0.009920092299580574,-9.846673965454102
1694507005226239277,-4.8866109864320606e-05,0.0002876250655390322,-0.0010385491186752915,0.5647454261779785,-0.009509936906397343,-9.771125793457031
1694507005236382589,0.0012153001734986901,-0.0013410851825028658,0.0012426611501723528,0.5171898603439331,0.010899217799305916,-9.810952186584473
1694507005246340537,0.0021382432896643877,-0.002534953411668539,-0.00020816562755499035,0.5258293747901917,0.040935009717941284,-9.801555633544922
1694507005256779714,-0.0017996205715462565,-0.0006436562398448586,-0.00029313407139852643,0.5496432185173035,-0.0006385091692209244,-9.874200820922852
1694507005266631313,-0.002600558567792177,0.000287423754343763,-0.0015160473994910717,0.528093695640564,-0.02104771137237549,-9.802980422973633
1694507005276578100,0.0007122835959307849,0.002842189045622945,0.0017664770130068064,0.5125468969345093,-0.025994807481765747,-9.748289108276367
1694507005286541541,0.00039869072497822344,-0.0011221773456782103,-0.0014829514548182487,0.41780194640159607,-0.002771385945379734,-9.787948608398438
1694507005296651030,0.0007785932393744588,-0.0007216791273094714,-0.0016621247632429004,0.4969724416732788,0.0876845270395279,-9.692818641662598
1694507005306425672,-0.0006194500019773841,7.663008000236005e-05,0.000975188217125833,0.5217162370681763,0.05195888131856918,-9.856399536132812
1694507005316543475,0.0014431249583140016,0.0014552704524248838,-2.527551623643376e-05,0.5142653584480286,0.005075683351606131,-9.801773071289062
1694507005326432087,-0.0019376121927052736,-0.00035272398963570595,-0.002103131962940097,0.4940396845340729,0.0032070947345346212,-9.818585395812988
1694507005336655987,-7.805340283084661e-05,0.0018023308366537094,-0.0014361097710207105,0.5710412263870239,0.0033855577930808067,-9.958836555480957
1694507005346462377,-0.00020430190488696098,-0.0013215411454439163,0.0022222280967980623,0.5887599587440491,-0.003714420832693577,-9.717615127563477
1694507005356517107,0.00025487024686299264,0.0028366728220134974,0.001156504382379353,0.5456852912902832,0.03168759495019913,-9.771065711975098
1694507005366515570,-0.0013898960314691067,0.001987938303500414,-0.0017889909213408828,0.5196244716644287,-0.02044759690761566,-9.764432907104492
1694507005376692547,0.0026085663121193647,-1.6182286344701424e-05,4.5756460167467594e-05,0.573803722858429,-0.037103038281202316,-9.74328327178955
1694507005386371208,0.0009962620679289103,-0.0034351609647274017,0.0004330079536885023,0.5416883826255798,0.08498777449131012,-9.84375
1694507005396458399,0.0008564699091948569,0.0031809827778488398,-0.0010827804217115045,0.5139734745025635,0.007388133555650711,-9.746187210083008
1694507005406477104,-0.0003102232585661113,0.0022274795919656754,-0.0018300620140507817,0.5422426462173462,-0.01582636870443821,-9.815510749816895
1694507005416662004,0.0004761506279464811,0.0009611814166419208,1.5115481801331043e-05,0.48545393347740173,-0.06355011463165283,-9.757889747619629
1694507005426383314,0.0015258265193551779,-0.0005331308930180967,-0.001207792665809393,0.4897322952747345,-0.032969482243061066,-9.753104209899902
1694507005436524143,-0.001407248550094664,-0.0024081573355942965,-0.00041384357609786093,0.47424960136413574,-0.03959285840392113,-9.807836532592773
1694507005447304152,-0.001138083403930068,-0.0008917133091017604,0.00043112499406561255,0.5946084260940552,0.004149517044425011,-9.7442626953125
1694507005456859580,0.0008160531870089471,-0.0008633972611278296,-0.00034268145100213587,0.5371101498603821,-0.02336002327501774,-9.844954490661621
1694507005466507401,0.001957138068974018,0.0012541123433038592,-0.0009706594282761216,0.4991444945335388,-0.05592986196279526,-9.674392700195312
1694507005480235428,-0.00011118169641122222,0.002382527571171522,0.0010147272842004895,0.4856361746788025,-0.05450575798749924,-9.851153373718262
1694507005486565247,0.0005717206513509154,0.0007825668435543776,-0.002551160752773285,0.4998135268688202,0.07258665561676025,-9.829683303833008
1694507005496589896,-0.0010366573696956038,-6.164988735690713e-05,-0.0003938204317819327,0.4726327657699585,-0.02158913016319275,-9.764782905578613
1694507005506424165,-0.0006731643807142973,-0.0029800082556903362,-0.0008286305237561464,0.5416870713233948,0.13485100865364075,-9.77377986907959
1694507005516586422,0.000989074818789959,-0.0008652661927044392,0.0014053697232156992,0.5240893363952637,-0.002971973270177841,-9.72333812713623
1694507005526465102,-0.002194760600104928,-0.0014918820234015584,0.00037805744796060026,0.5559080243110657,0.08775642514228821,-9.77950668334961
1694507005536635849,-0.0005928690661676228,-0.002099157776683569,-0.0006749859894625843,0.5781804323196411,-0.0189056396484375,-9.803915023803711
1694507005546505263,-0.0009042684105224907,-0.0005868959706276655,0.0019340094877406955,0.5094591379165649,-0.005038092844188213,-9.881373405456543
1694507005556799633,0.0008467048755846918,0.0018421757267788053,0.0004709176137112081,0.5341813564300537,0.11230584979057312,-9.784069061279297
1694507005566452072,0.00019635871285572648,-0.00026338952011428773,0.0021111757960170507,0.5964970588684082,-0.023904236033558846,-9.843852996826172
1694507005576572225,-0.0018160324543714523,-0.0011884995037689805,3.655033651739359e-05,0.5582351088523865,-0.017113517969846725,-9.705265998840332
1694507005586476293,-0.0014423535903915763,-0.003190570278093219,-0.00010186924191657454,0.5575268268585205,0.06560507416725159,-9.769264221191406
1694507005596639757,-0.0002959849371109158,0.0016861982876434922,-0.0009415918029844761,0.5079544186592102,-0.08627655357122421,-9.73123550415039
1694507005606618290,0.0008214761619456112,-0.0002664616040419787,0.0005086017190478742,0.5497326254844666,-0.01988549344241619,-9.783400535583496
1694507005616496406,0.0005142823210917413,-0.0013616246869787574,-1.9698434698511846e-05,0.5931547284126282,-0.05650198459625244,-9.864173889160156
1694507005626433470,-0.0011224967893213034,0.000512627768330276,0.0010480508208274841,0.4919806122779846,-0.013084407895803452,-9.712845802307129
1694507005636521050,-0.0017831752775236964,0.003153907135128975,0.00032342111808247864,0.5621871948242188,-0.0271499902009964,-9.794461250305176
1694507005646565715,-0.0009444123134016991,-0.0005798437050543725,-0.0014240581076592207,0.5694873332977295,0.031076090410351753,-9.878090858459473
1694507005656510988,0.0002634548000060022,-0.0007420152542181313,-0.0011070026084780693,0.5730499029159546,0.0038549406453967094,-9.813959121704102
1694507005666442168,-0.0010369543451815844,0.0007267354521900415,0.0004447291430551559,0.5027410387992859,0.039230577647686005,-9.737371444702148
1694507005676652223,-0.0026654640678316355,-0.0005811257287859917,-5.320244235917926e-05,0.4697032570838928,0.024400360882282257,-9.698726654052734
1694507005686434501,-0.0008561506983824074,-0.0009241639054380357,7.690188067499548e-05,0.5249338746070862,-0.019046321511268616,-9.798463821411133
1694507005696394948,3.495144483167678e-05,-0.002767556346952915,0.002026930684223771,0.5273208022117615,-0.020459841936826706,-9.772537231445312
1694507005706364272,-0.00023969281755853444,-0.0014943733112886548,-0.0015931972302496433,0.4632016122341156,0.028664259240031242,-9.725031852722168
1694507005716559413,0.001954642590135336,-0.0014767652610316873,-0.0020842759404331446,0.4999591112136841,-0.0744367241859436,-9.837696075439453
1694507005726377053,0.0001744698383845389,-0.0008563156588934362,-0.001934095867909491,0.5166987776756287,-0.02074958011507988,-9.741554260253906
1694507005736564035,-0.0006500238087028265,-0.0011440238449722528,-0.002236342756077647,0.48671582341194153,0.013942766934633255,-9.785150527954102
1694507005746384921,-0.00249190884642303,0.00258449325338006,0.003096392611041665,0.5096803307533264,0.014572564512491226,-9.72299575805664
1694507005756396630,0.0002621272287797183,-0.0011810512514784932,-0.0006101365434005857,0.5761317610740662,0.04337503761053085,-9.874908447265625
1694507005766614745,-0.0021978607401251793,0.002118323929607868,0.0003920868330169469,0.5588693618774414,0.021015293896198273,-9.746789932250977
1694507005776601880,0.0010323119349777699,-0.002148859901353717,0.001334217842668295,0.537895679473877,0.0565110482275486,-9.814949035644531
1694507005787502732,-0.00055690883891657,0.0001833312853705138,0.003956966567784548,0.39832016825675964,0.05232161283493042,-9.856202125549316
1694507005796852545,-0.0008681340841576457,-0.00043710475438274443,0.00040754847577773035,0.541542112827301,-0.012288419529795647,-9.736077308654785
1694507005806443828,0.002533592516556382,-0.0009201989741995931,0.00011148697376484051,0.5041419267654419,0.056166063994169235,-9.82355785369873
1694507005816558322,0.0013600361999124289,-0.002779686590656638,-0.0008433592738583684,0.5553991198539734,0.036655817180871964,-9.731834411621094
1694507005826662624,0.0018402651185169816,0.0001944687101058662,-0.00048805915866978467,0.45704326033592224,-0.016515515744686127,-9.757323265075684
1694507005836642276,0.00015233705926220864,0.003214319236576557,-9.049707296071574e-05,0.5325914621353149,-0.0006794165819883347,-9.823808670043945
1694507005846487989,0.0007364517659880221,-0.0007922516670078039,-0.001030816463753581,0.4937794804573059,-0.005223835818469524,-9.704668045043945
1694507005856496561,0.0014183666789904237,-0.0015051258960738778,-0.0007569807930849493,0.5636321306228638,0.04285508766770363,-9.704158782958984
1694507005866423346,-0.001349823665805161,-0.001758978352881968,0.0006530953687615693,0.5771645903587341,0.04135692119598389,-9.792204856872559
1694507005876613476,-0.0005089095211587846,-0.0012543685734272003,0.0010149345034733415,0.5059811472892761,0.016353430226445198,-9.765839576721191
1694507005886573381,-0.004226292483508587,-1.1637264833552763e-05,-0.002142470795661211,0.5731238722801208,0.01875586435198784,-9.750521659851074
1694507005896424651,0.0037065523210912943,-0.0007287103799171746,0.00014099660620559007,0.48136597871780396,-0.013744847849011421,-9.825275421142578
1694507005906370608,0.00028645750717259943,0.0018965391209349036,-0.00019559089560061693,0.4967016577720642,0.02728462964296341,-9.740572929382324
1694507005916475595,-0.0010907052783295512,-0.002156246919184923,-0.0003992570855189115,0.46534183621406555,0.0347721092402935,-9.865517616271973
1694507005926460068,-0.0011286253575235605,0.0002857264189515263,0.0005764443194493651,0.5314359068870544,0.04552463814616203,-9.825061798095703
1694507005936583697,4.913358861813322e-05,0.0018426728202030063,-0.0005907821469008923,0.48333296179771423,0.012209160253405571,-9.713276863098145
1694507005946427250,-0.0014036273350939155,-0.0009688236168585718,0.0018753809854388237,0.5175402164459229,0.05161655321717262,-9.791353225708008
1694507005956567095,0.00013250464689917862,0.0004048456612508744,-0.002477091969922185,0.5450084209442139,0.05695285648107529,-9.819683074951172
1694507005966437416,-0.002617961261421442,-0.0032625289168208838,-0.001604519784450531,0.5163736939430237,0.051677361130714417,-9.794662475585938
1694507005976418325,0.0003201902436558157,-0.001705265836790204,0.0003479844890534878,0.5205819606781006,0.008680298924446106,-9.846073150634766
1694507005986458338,-2.1660052880179137e-05,-5.7518540415912867e-05,-0.0031625418923795223,0.49832433462142944,0.032692886888980865,-9.770941734313965
1694507005996453109,0.0005310875130817294,-0.00046975340228527784,0.00016306609904859215,0.4997144341468811,-0.0047991639003157616,-9.73501205444336
1694507006006357978,0.0018121207831427455,0.0018042630981653929,0.0016626252327114344,0.4590478241443634,0.03436854109168053,-9.803499221801758
1694507006016429040,-0.00045206371578387916,0.00010785649647004902,-0.00034910900285467505,0.5072687268257141,-0.00897357426583767,-9.832758903503418
1694507006026352457,-0.0019623450934886932,-0.00011999150592600927,-0.000831310753710568,0.5044368505477905,-0.0017709145322442055,-9.758294105529785
1694507006036625382,-0.000602814310695976,-0.0009386466699652374,-0.0007661653799004853,0.49810850620269775,0.019636455923318863,-9.773374557495117
1694507006046642980,0.000174400644027628,0.0003570410772226751,-0.0005916423397138715,0.6405196785926819,0.08462550491094589,-9.792738914489746
1694507006056508155,-0.0016827033832669258,0.0007786796777509153,-0.001975475810468197,0.49529728293418884,-0.09630967676639557,-9.74661922454834
1694507006066493966,0.0008386628469452262,-0.0005918944370932877,-0.0010297847911715508,0.5128229260444641,0.019115403294563293,-9.819125175476074
1694507006076429323,-0.0015610719565302134,0.0007529896683990955,0.0009765541763044894,0.5430839657783508,0.10837913304567337,-9.738439559936523
1694507006086405660,-0.003095812164247036,0.0009274331969209015,-0.0007936633192002773,0.47448083758354187,-0.03030991740524769,-9.819451332092285
1694507006096526846,-0.0014614106621593237,-0.0005504664150066674,-0.002345652785152197,0.5064072608947754,-0.0007894560694694519,-9.774273872375488
1694507006106425116,0.0011856460478156805,-0.00045090491767041385,0.0014023196417838335,0.5846266150474548,-0.0044859303161501884,-9.744892120361328
1694507006116373689,0.0029456501360982656,0.0009349442552775145,-0.00022858224110677838,0.5771481394767761,-0.02761152759194374,-9.776230812072754
1694507006126417887,-0.00018762244144454598,-0.0012921176385134459,-0.002817976986989379,0.5361699461936951,0.034187909215688705,-9.837327003479004
1694507006136438298,0.0005560431745834649,0.0005354960449039936,2.984231832670048e-05,0.536099910736084,0.06527011841535568,-9.767260551452637
1694507006146426787,-0.002415774390101433,-5.758696352131665e-05,-9.502519969828427e-05,0.5271979570388794,-0.05697647109627724,-9.790949821472168
1694507006156605219,0.0013424219796434045,-0.0016823705518618226,8.942224667407572e-05,0.51425701379776,0.005793435033410788,-9.781153678894043
1694507006166399842,-0.00044329726370051503,0.0032259777653962374,-0.0016218824312090874,0.48495393991470337,0.02465459704399109,-9.78766918182373
1694507006176310876,-0.0029708228539675474,0.0005803774110972881,0.00202008499763906,0.4417354166507721,0.0005461229011416435,-9.718660354614258
1694507006186527181,0.0005681175389327109,-3.433272286201827e-05,-0.0002303060464328155,0.4610534906387329,-0.030235446989536285,-9.761663436889648
1694507006196436281,-0.001962535083293915,-0.001432658638805151,0.00025444873608648777,0.4903598725795746,0.024395868182182312,-9.72835636138916
1694507006206411184,0.000659585406538099,0.001358060515485704,0.002185732126235962,0.4973967969417572,-0.06742322444915771,-9.787109375
1694507006216439673,0.0011277543380856514,0.00045825616689398885,0.0023660766892135143,0.5066145658493042,-0.018830295652151108,-9.898634910583496
1694507006226437273,-5.873964255442843e-05,-0.0013323681196197867,-0.0017236603889614344,0.5216565728187561,-0.04113931953907013,-9.783958435058594
1694507006236404581,0.0011410349979996681,-0.0017914159689098597,0.004438957665115595,0.5299947261810303,0.06451492011547089,-9.732612609863281
1694507006246379883,0.0029101273976266384,-0.0013279152335599065,0.0003796860983129591,0.48796719312667847,0.036576662212610245,-9.795154571533203
1694507006256370189,-0.0018572555854916573,0.001478160498663783,-0.0015024589374661446,0.48118171095848083,0.0526859350502491,-9.852147102355957
1694507006266324623,0.00030331991729326546,0.00043814367381855845,0.0012958974111825228,0.5105491876602173,0.00404075812548399,-9.893101692199707
1694507006276351207,0.0018442958826199174,-0.0009158310713246465,0.00188432727009058,0.5460754036903381,0.014609896577894688,-9.74183464050293
1694507006286378986,0.002664062427356839,0.0004284821916371584,-1.092023649107432e-05,0.5381032824516296,0.07681756466627121,-9.771331787109375
1694507006296882572,0.0001886685931822285,0.0005828765570186079,0.00041169143514707685,0.5309159755706787,0.04955357313156128,-9.714484214782715
1694507006306443092,0.003033694112673402,-0.0009415334789082408,0.0021346311550587416,0.4886740446090698,0.08545508235692978,-9.867162704467773
1694507006316403222,0.0012899726862087846,0.0006086063804104924,-0.0005918902461417019,0.48293328285217285,0.03892844170331955,-9.84046745300293
1694507006326453893,-0.001436737715266645,-0.0017151129432022572,-0.0006854548119008541,0.5549757480621338,-0.04508014768362045,-9.775776863098145
1694507006336473509,-0.0012755159987136722,-0.003113178536295891,0.0009384248405694962,0.5799352526664734,0.038468971848487854,-9.809168815612793
1694507006346391952,0.00478318938985467,0.00032768803066574037,0.0006191966822370887,0.5852712392807007,-0.05795280635356903,-9.768524169921875
1694507006356367215,0.001425995142199099,-0.0008836491615511477,-0.00031154826865531504,0.5292747020721436,0.07678654789924622,-9.852977752685547
1694507006366641151,0.000855795806273818,0.0031723203137516975,0.0007285922765731812,0.4857776463031769,0.040684908628463745,-9.772899627685547
1694507006376441776,0.0009310655295848846,-0.0020167639013379812,0.002381166908890009,0.5030081868171692,-0.0009590238332748413,-9.837454795837402
1694507006386392820,-0.0013240639818832278,-0.0006499818991869688,-0.0020279940217733383,0.5538753271102905,-0.03483050316572189,-9.723514556884766
1694507006396419236,0.0014572979416698217,-0.0017354157753288746,0.0004591597826220095,0.507293164730072,-0.02833569049835205,-9.81806468963623
1694507006406455107,-0.00010337650019209832,9.558297460898757e-05,-0.0012985622743144631,0.5506609082221985,-0.052327342331409454,-9.76828384399414
1694507006416411490,-0.00031419345759786665,0.002938701771199703,-0.001280376105569303,0.5149989128112793,0.058624476194381714,-9.754569053649902
1694507006426443555,-0.0008175679249688983,0.00045006853179074824,0.0012865235330536962,0.4603022038936615,0.042014144361019135,-9.87186336517334
1694507006436423161,-0.00017890860908664763,-0.0014214811380952597,-0.002627595094963908,0.5190027952194214,0.025685954838991165,-9.835108757019043
1694507006446398468,0.0011919044191017747,0.0007869138498790562,-0.003061734139919281,0.4747479259967804,0.06721841543912888,-9.805853843688965
1694507006456467967,-0.0010854529682546854,-0.0011373953893780708,0.0019025123910978436,0.5025755763053894,0.021842142567038536,-9.82475471496582
1694507006466399292,0.0009730191086418927,0.0018262227531522512,0.0007030499982647598,0.5305138230323792,-0.00665677897632122,-9.731237411499023
1694507006476385836,-0.001438205479644239,-0.0017003550892695785,0.00013678029063157737,0.48078247904777527,-0.04320120811462402,-9.77873706817627
1694507006486458653,-0.0013180935056880116,0.0009243132080882788,0.0011662025935947895,0.5579770803451538,0.015549862757325172,-9.782618522644043
1694507006497911703,0.0004197188245598227,0.0009032564703375101,-0.0032341252081096172,0.5607415437698364,0.08031634241342545,-9.739327430725098
1694507006506441274,0.0006906405906192958,0.002898309612646699,0.0013963176170364022,0.5174346566200256,0.06502814590930939,-9.838068008422852
1694507006516371486,0.00022368173813447356,-0.0026158487889915705,0.0021818627137690783,0.5467582941055298,-0.03554296866059303,-9.79115104675293
1694507006526480252,-0.0006137029267847538,-0.0006140996119938791,0.0031074020080268383,0.4865005314350128,0.05242593586444855,-9.80463981628418
1694507006536397673,0.0013349211076274514,-0.0006672131712548435,0.0016970320139080286,0.5081756711006165,-0.004673317074775696,-9.806453704833984
1694507006546371697,-0.001981231151148677,0.0016096243634819984,0.0003146772796753794,0.5202196836471558,-0.019379792734980583,-9.702238082885742
1694507006556460570,-0.0017727870726957917,-0.0010249715996906161,-0.002577936975285411,0.5388698577880859,-0.00780206173658371,-9.873127937316895
1694507006566459710,7.83083014539443e-05,0.0025144959799945354,0.0014231138629838824,0.5219656825065613,0.026132740080356598,-9.794426918029785
1694507006576496422,-0.0005981418071314692,0.0015202921349555254,7.742414891254157e-05,0.5159754753112793,0.06117483973503113,-9.806618690490723
1694507006586382089,0.00010809914238052443,-0.0016520573990419507,-0.0013196576619520783,0.4973907470703125,0.05297132581472397,-9.72327709197998
1694507006596440651,0.0004781997122336179,-0.0016873496351763606,0.0022116072941571474,0.583885908126831,-0.005977025255560875,-9.78606128692627
1694507006616480518,0.0020045109558850527,-0.0017488606972619891,-0.0009778711246326566,0.5924489498138428,-0.07082207500934601,-9.782371520996094
1694507006617669768,-0.00025475493748672307,-0.0010513367597013712,-0.0005443461704999208,0.5165112018585205,-0.02336040884256363,-9.817020416259766
1694507006626320666,-0.0018640515627339482,-0.003525923704728484,0.00027598353335633874,0.5299381017684937,0.057715535163879395,-9.801575660705566
1694507006639006027,-0.00170542998239398,0.00010488630505278707,0.0005977150867693126,0.5077893137931824,0.056703485548496246,-9.816250801086426
1694507006646420820,-0.00025440563331358135,0.0020881083328276873,-0.000603937020059675,0.5956025123596191,-0.009149933233857155,-9.782533645629883
1694507006656389195,-6.035568731022067e-06,-0.0013810866512358189,-0.00014900621317792684,0.5315319895744324,-0.024998720735311508,-9.786920547485352
1694507006666406787,0.003138791536912322,-0.0015262472443282604,-0.0018358088564127684,0.48948612809181213,0.04232621192932129,-9.719703674316406
1694507006676401125,0.0001020305062411353,0.00038782047340646386,-0.0015267893904820085,0.4734545648097992,0.1062917560338974,-9.810710906982422
1694507006686397518,-0.0014231144450604916,-0.0005743326037190855,-0.0020299458410590887,0.4899030029773712,-0.009420789778232574,-9.728017807006836
1694507006696400019,0.0016008669044822454,-0.0013072158908471465,-0.0008305370574817061,0.5274685025215149,0.02080649323761463,-9.75756549835205
1694507006706344512,0.0028460989706218243,-0.00035384425427764654,0.001460851519368589,0.5412634015083313,0.04651777446269989,-9.813553810119629
1694507006716370881,-0.0005121112917549908,0.002292337128892541,0.0029282658360898495,0.5382583737373352,0.03939514607191086,-9.754817962646484
1694507006726357035,-0.0011880806414410472,0.002145646372810006,0.0008186837658286095,0.5491471290588379,0.020191727206110954,-9.792542457580566
1694507006736354112,-0.0011970298364758492,-0.0012535887071862817,0.00020996689272578806,0.5289498567581177,0.009075119160115719,-9.810827255249023
1694507006746353003,-0.0005028731538914144,-0.0013328265631571412,-0.001970571931451559,0.4831187129020691,-0.012032199651002884,-9.721110343933105
1694507006756471553,-0.0006370716728270054,-0.0005516463425010443,0.0028463988564908504,0.5120978951454163,0.026035893708467484,-9.737530708312988
1694507006766538026,0.002681894926354289,0.0008906701696105301,0.0035071626771241426,0.5276947021484375,0.021566586568951607,-9.77062702178955
1694507006776440631,-0.0014770262641832232,0.0030197715386748314,-0.0011181889567524195,0.5709737539291382,0.011494693346321583,-9.748193740844727
1694507006786465175,0.002243918366730213,-0.0010781408054754138,-1.2647700714296661e-05,0.5774015188217163,0.042661454528570175,-9.72109317779541
1694507006796531510,0.0011768679833039641,0.00030673766741529107,-0.0009611708810552955,0.4928840696811676,0.017145518213510513,-9.79458236694336
1694507006806471662,0.0020227849017828703,0.0017281591426581144,0.001293783076107502,0.46179744601249695,-0.03033110871911049,-9.784590721130371
1694507006816431877,-0.0033857114613056183,0.00010403874330222607,-0.001220915000885725,0.500174343585968,0.0008810386061668396,-9.829977035522461
1694507006826454542,-0.0028552094008773565,0.0003708688891492784,-0.0016891253180801868,0.6115200519561768,0.05804389342665672,-9.792338371276855
1694507006836532028,-0.0010730349458754063,2.4209788534790277e-05,-0.0011369180865585804,0.5300162434577942,-0.0010199639946222305,-9.80179214477539
1694507006846439582,0.0005284223589114845,0.0007723028538748622,0.0008567637414671481,0.5356416702270508,0.09632532298564911,-9.785173416137695
1694507006856345274,-0.00044469471322372556,-1.7689042579149827e-05,0.0009133220883086324,0.5585460662841797,0.023826081305742264,-9.801614761352539
1694507006866540859,0.00048200052697211504,0.00201858370564878,0.0001798774756025523,0.5073991417884827,-0.08762851357460022,-9.782674789428711
1694507006876383366,-0.0019425095524638891,-0.00016027252422645688,0.0008616006234660745,0.6488508582115173,0.04702630639076233,-9.785717964172363
1694507006886424018,0.005233016796410084,0.004737866576761007,-0.00037465119385160506,0.5062552690505981,0.018995190039277077,-9.863154411315918
1694507006896400366,0.0004211535560898483,-0.0012785831931978464,0.0006067708018235862,0.3997915983200073,0.10958588123321533,-9.760639190673828
1694507006906350065,-0.0003971387923229486,-0.00061335030477494,0.0010664664441719651,0.47397077083587646,-0.06745052337646484,-9.7984037399292
1694507006916363060,0.0011866249842569232,0.0010766912018880248,-0.0007338774739764631,0.5378265380859375,0.01400025375187397,-9.834991455078125
1694507006926359474,0.001076805405318737,0.002962870290502906,0.0003423636662773788,0.4801364839076996,0.0409993976354599,-9.811290740966797
1694507006936398730,-2.33862974710064e-05,0.004005759488791227,0.0011263800552114844,0.4549116790294647,-0.03583165258169174,-9.828160285949707
1694507006946393857,-0.00190971908159554,-0.0003652489394880831,-0.0015962255420163274,0.4711918532848358,-0.0004567820578813553,-9.82862377166748
1694507006956448089,-0.0025338169652968645,0.0009011490037664771,-0.000983207719400525,0.48668166995048523,-0.0007172636687755585,-9.762125968933105
1694507006966380305,0.0008611134835518897,-0.000377970834961161,0.0021274785976856947,0.5872547030448914,-0.0176901426166296,-9.802409172058105
1694507006976466520,-0.0007870430126786232,-0.0002539212873671204,-0.002384181832894683,0.47129330039024353,0.036202624440193176,-9.708725929260254
1694507006986420133,-0.0024553912226110697,0.001214330899529159,-0.003120845416560769,0.5675607323646545,0.09366141259670258,-9.759305953979492
1694507006996343335,0.0002791678416542709,0.00021674128947779536,-0.0006878235726617277,0.5929203629493713,0.08385148644447327,-9.7988920211792
1694507007006349105,-0.0015836490783840418,-0.0005002030520699918,-0.002119135344401002,0.47522905468940735,-0.06056595593690872,-9.714544296264648
1694507007016359300,-0.0015991937834769487,-0.0003150223637931049,-0.00019323540618643165,0.5288952589035034,0.020006388425827026,-9.768844604492188
1694507007026333160,-0.003199204569682479,0.0006325872964225709,-0.0015917924465611577,0.4766547977924347,-0.028895966708660126,-9.755155563354492
1694507007036513061,6.996452430030331e-05,0.00014458967780228704,0.002088056644424796,0.5009922981262207,0.02944370172917843,-9.749025344848633
1694507007046528483,0.00039979623397812247,-0.0001673361548455432,0.0018013304797932506,0.5065566897392273,0.03323521465063095,-9.774948120117188
1694507007056546826,-0.00392366386950016,-0.0007463872898370028,0.000450892053777352,0.4122069776058197,0.03122904896736145,-9.830827713012695
1694507007066475542,0.001933382940478623,0.0015843309229239821,-0.002910697367042303,0.559145987033844,0.08595752716064453,-9.802921295166016
1694507007076444541,-0.001061061630025506,0.00028584792744368315,0.0016323874006047845,0.5266470313072205,-0.02126132883131504,-9.84300422668457
1694507007086456021,0.0014053754275664687,-0.0008848112192936242,-0.0006566968513652682,0.4953863322734833,0.06354759633541107,-9.81769847869873
1694507007096458552,0.0017180248396471143,-0.002264568116515875,-0.0003447355702519417,0.5890833735466003,-0.04707648232579231,-9.801836967468262
1694507007106433769,-0.00038335006684064865,-0.0004152821784373373,-0.003247011685743928,0.4453057646751404,0.004425758495926857,-9.9024658203125
1694507007116399682,0.003304682672023773,-0.0011213920079171658,0.0008284467621706426,0.5087112188339233,0.008359439671039581,-9.761670112609863
1694507007126389520,-0.0006841429858468473,-0.0005970032070763409,-0.0008573580416850746,0.49594375491142273,0.10689408332109451,-9.847686767578125
1694507007136464858,-0.000656230840831995,0.0010105060646310449,-0.0018748606089502573,0.46105343103408813,0.035964056849479675,-9.825462341308594
1694507007146423581,-6.0061323893023655e-05,0.0010305042378604412,-0.0005766153917647898,0.48535066843032837,0.0012254640460014343,-9.810072898864746
1694507007156438542,0.00012800184777006507,0.0017240559682250023,-0.0005318957846611738,0.4449295997619629,0.03025355190038681,-9.852761268615723
1694507007166417837,-0.002609797054901719,-0.0015196315944194794,0.00046398519771173596,0.4368284344673157,0.09374450147151947,-9.771560668945312
1694507007176483802,-0.0010432692943140864,0.0007195210782811046,-0.0002462122356519103,0.4542693793773651,-0.07357749342918396,-9.841793060302734
1694507007186449111,0.0010253203799948096,-0.0015050203073769808,0.0004831164260394871,0.5132626891136169,0.1196000725030899,-9.829866409301758
1694507007196454715,0.00022802619787398726,-0.0008070601616054773,-0.00026376041932962835,0.5653432011604309,-0.016622578725218773,-9.824806213378906
1694507007206443748,0.0007858860772103071,-0.0020213774405419827,0.0005105306045152247,0.49882933497428894,-0.00834193080663681,-9.8533353805542
1694507007216412222,0.0028250417672097683,0.0004926524125039577,0.0008815633482299745,0.5159666538238525,0.04805726930499077,-9.761262893676758
1694507007226448487,-0.001366020878776908,0.0007087604608386755,-0.0010850019752979279,0.5449945330619812,-0.005896966904401779,-9.794984817504883
1694507007236349399,0.00015370716573670506,-0.0012355530634522438,2.486167250026483e-05,0.36784517765045166,-0.05224780738353729,-9.73763370513916
1694507007246371862,0.002139260759577155,0.0012472484959289432,-0.00011123813601443544,0.5436781644821167,-0.012154094874858856,-9.805039405822754
1694507007256376160,0.00019075868476647884,0.0002551486832089722,-0.0010385594796389341,0.5072484016418457,0.03943926468491554,-9.753995895385742
1694507007266331081,-0.0028529230039566755,0.0013693562941625714,-0.0014710889663547277,0.5330235958099365,0.03496483713388443,-9.778239250183105
1694507007276337935,0.0005948870675638318,6.345971632981673e-05,-0.00012070323282387108,0.4764743745326996,0.015699876472353935,-9.772880554199219
1694507007286422808,-0.001060682930983603,-0.0007304573082365096,0.0010605512652546167,0.4192897081375122,0.03610509634017944,-9.803753852844238
1694507007296469150,0.001086844247765839,0.0006657241610810161,0.001906258286908269,0.44902974367141724,0.04073287919163704,-9.838132858276367
1694507007306433665,0.0018291089218109846,0.00036024735891260207,0.0008307119715027511,0.4389086961746216,0.07941532135009766,-9.747923851013184
1694507007316450140,-0.00029367965180426836,-0.0012636721367016435,-0.00039302033837884665,0.5028135776519775,-0.06176101043820381,-9.804429054260254
1694507007326420035,0.0014097504317760468,-0.001719533815048635,0.0012026961194351315,0.4922686517238617,0.017397701740264893,-9.829825401306152
1694507007336462890,-0.0011768187396228313,-0.00125166866928339,0.0014267447404563427,0.5384452939033508,0.04755952209234238,-9.69365119934082
1694507007346394557,-0.0009234098833985627,0.001581354415975511,-0.0010291103972122073,0.5135064125061035,0.023859329521656036,-9.731069564819336
1694507007356409361,0.0008517691749148071,0.0006932045798748732,-0.0014015358174219728,0.49055173993110657,0.01770973578095436,-9.829960823059082
1694507007366541169,0.0004966308479197323,-0.0003724144189618528,-0.0007915247697383165,0.5319525599479675,-0.003750644624233246,-9.800686836242676
1694507007376494984,0.0002933847135864198,0.0013174106134101748,0.0008729265537112951,0.4870181977748871,-0.04225355386734009,-9.8236665725708
1694507007386480161,-0.0007897865143604577,0.0017398408381268382,-0.001789415255188942,0.511227011680603,0.014449934475123882,-9.79244327545166
1694507007396381742,-0.0006326288566924632,-0.00018952577374875546,-0.0006505274795927107,0.5345892906188965,0.03766513615846634,-9.771824836730957
1694507007406524858,-0.0013020196929574013,-0.00014969523181207478,-8.164394967025146e-05,0.5309268236160278,0.07903476059436798,-9.7308349609375
1694507007416426742,0.0006413731025531888,0.0024156502913683653,-0.00024621543707326055,0.5227063894271851,-0.0023957043886184692,-9.758206367492676
1694507007426394911,-0.00011783986701630056,-0.0013040530029684305,3.264208498876542e-05,0.4996708333492279,0.08891302347183228,-9.855918884277344
1694507007436457456,0.002844354836270213,-0.00046293105697259307,0.0030930701177567244,0.5496015548706055,0.033621929585933685,-9.747349739074707
1694507007446465227,-0.0006460817530751228,0.0025684128049761057,0.0006131494301371276,0.4882383346557617,0.008669786155223846,-9.72637939453125
1694507007456453323,-0.000923721119761467,0.0004556208732537925,-0.0023887092247605324,0.49182140827178955,0.07891382277011871,-9.757760047912598
1694507007466417552,-0.0023482402320951223,-0.00034251867327839136,0.0002530190977267921,0.46096155047416687,0.08202139288187027,-9.82193660736084
1694507007476408221,-0.001973532373085618,-0.0012868181802332401,0.001080644316971302,0.4823139011859894,0.02771221473813057,-9.799263954162598
1694507007486384402,-0.004056059755384922,0.0010544145479798317,-0.0005415221676230431,0.4833396375179291,0.02406187169253826,-9.818199157714844
1694507007496404832,0.00041101378155872226,0.0007058932678773999,0.0012214287417009473,0.5399461984634399,0.07300011813640594,-9.808917045593262
1694507007506754617,-0.000600476167164743,0.000673157861456275,0.00036530097713693976,0.49721503257751465,-0.010461831465363503,-9.789549827575684
1694507007516436892,-0.002677031559869647,0.0001927822013385594,0.0014465450076386333,0.4893205761909485,-0.0003788899630308151,-9.80497932434082
1694507007526325706,-0.0006734015769325197,0.001357415341772139,-0.001120545668527484,0.4979206323623657,0.011083122342824936,-9.78077220916748
1694507007536459965,-0.0011638003634288907,0.00016821923782117665,0.0008521759300492704,0.5039077401161194,0.05635005980730057,-9.759297370910645
1694507007546362997,-0.0007190820761024952,0.0006886442424729466,0.00082008185563609,0.5359691977500916,0.08673041313886642,-9.80183219909668
1694507007556386509,0.003374539315700531,0.0013295328244566917,0.001968575641512871,0.44471654295921326,0.10569994151592255,-9.861983299255371
1694507007566434665,-0.0001285684120375663,0.00018738803919404745,-0.0007385865901596844,0.42683809995651245,0.04327438771724701,-9.819704055786133
1694507007576362705,-0.001524725346826017,-0.0014503886923193932,0.0013715910026803613,0.5268715023994446,-0.03543988987803459,-9.730923652648926
1694507007586487243,-0.001078047906048596,-0.0026901112869381905,-0.0015268819406628609,0.5595967173576355,-0.056294962763786316,-9.787396430969238
1694507007596502414,-0.001651671715080738,0.00016757029516156763,0.0018296769121661782,0.48588505387306213,0.020471248775720596,-9.754732131958008
1694507007606516919,0.0004640625847969204,-0.0001061074435710907,0.0006988003733567894,0.46976086497306824,0.03409584239125252,-9.865598678588867
1694507007616331555,-0.0030373490881174803,-0.0009012121008709073,0.0021469092462211847,0.5673522353172302,0.022366363555192947,-9.841508865356445
1694507007626416935,-0.0027277336921542883,-0.00029182672733440995,-0.00010247546015307307,0.43926748633384705,0.026057282462716103,-9.854743957519531
1694507007636362643,0.0011134798405691981,0.0015665980754420161,-0.0016524526290595531,0.4973759949207306,0.06927631050348282,-9.866750717163086
1694507007646444359,0.0014575995737686753,-0.00036816392093896866,0.0006797518581151962,0.508386492729187,0.0019973330199718475,-9.853482246398926
1694507007656926996,-3.8579877582378685e-05,-0.0018375947838649154,-0.0002383584069320932,0.5071290731430054,0.033559948205947876,-9.788886070251465
1694507007666398567,0.0012933574616909027,-0.0015394031070172787,-0.0009577967575751245,0.48296618461608887,0.020933859050273895,-9.723409652709961
1694507007676529187,-0.0015792406629770994,-0.002108694752678275,-0.000712829758413136,0.43303731083869934,-0.037996307015419006,-9.804266929626465
1694507007686434214,-0.0004797003057319671,-0.0003856651019304991,-0.001279353047721088,0.45085930824279785,0.050084188580513,-9.840503692626953
1694507007696330033,-0.000611569732427597,-0.0008154289098456502,0.0018686820985749364,0.5352075099945068,0.0471225380897522,-9.878689765930176
1694507007706362145,-0.0006031475495547056,-0.00031513639260083437,0.0004212458152323961,0.41411370038986206,0.11771199107170105,-9.833200454711914
1694507007716460289,0.00014502261183224618,-0.002322386484593153,-0.0024420295376330614,0.5102372765541077,0.06811360269784927,-9.786212921142578
1694507007726351090,-6.962525731069036e-06,-0.002981009427458048,-3.766819281736389e-05,0.4909782409667969,0.006205609068274498,-9.79209041595459
1694507007736378331,0.0009247291018255055,-0.0007214650395326316,0.00019071123097091913,0.43491917848587036,-0.020057644695043564,-9.80060863494873
1694507007746395740,0.0005274525028653443,0.0002083069266518578,0.0026723628398030996,0.5070594549179077,0.06509491801261902,-9.849785804748535
1694507007756386359,9.082650649361312e-07,-0.0018517014104872942,0.0015389660838991404,0.5458372831344604,0.030058693140745163,-9.709846496582031
1694507007766334049,-0.0012104744091629982,-0.0018600840121507645,-0.001686923555098474,0.4307636022567749,0.09108726680278778,-9.776785850524902
1694507007776407579,0.00021274339815136045,0.0012959667947143316,0.002422234509140253,0.5237252116203308,0.060471318662166595,-9.814050674438477
1694507007786342648,-0.0002301268104929477,0.0023486807476729155,0.0005844878614880145,0.499190092086792,0.011830986477434635,-9.792576789855957
1694507007796387235,0.003989575896412134,-0.0017740292241796851,0.0011410651495680213,0.5193234086036682,-0.08344695717096329,-9.766823768615723
1694507007806547012,-0.0006472895038314164,-0.0010133336763828993,0.001605048542842269,0.5268358588218689,0.029656365513801575,-9.837841987609863
1694507007816415863,0.001885953824967146,-0.0006640761275775731,0.0004435995942912996,0.5779975056648254,0.04303263872861862,-9.805818557739258
1694507007826536589,-1.0606197974993847e-05,-4.015708327642642e-05,0.0016059392364695668,0.551838219165802,-0.034600481390953064,-9.81529426574707
1694507007836489109,-0.0018803355051204562,-0.0005185049958527088,0.004360433202236891,0.434499055147171,0.034401386976242065,-9.789458274841309
1694507007846389232,0.0019988196436315775,0.0008563998271711171,0.0017495822394266725,0.5082666873931885,-0.08773903548717499,-9.82116985321045
1694507007856395198,0.001158081809990108,-0.0001874874869827181,0.0001720511936582625,0.46330082416534424,0.0543748177587986,-9.753605842590332
1694507007866463572,-0.0005578370182774961,0.0005365964025259018,-0.0005574035458266735,0.4866296947002411,-0.023367393761873245,-9.815988540649414
1694507007876479284,-0.0016689267940819263,0.0004901652573607862,-0.0006819952395744622,0.5596884489059448,0.01999846287071705,-9.79800033569336
1694507007886408157,0.0017230836674571037,0.0019418499432504177,-0.0012774583883583546,0.49046605825424194,0.038254499435424805,-9.807148933410645
1694507007896580069,0.0006602579960599542,-0.0021598997991532087,-0.0016148322029039264,0.4859205186367035,0.06679795682430267,-9.82030200958252
1694507007906387815,0.0025975885801017284,-0.0016618744703009725,-0.00024136705906130373,0.511896014213562,-0.0555906668305397,-9.782413482666016
1694507007916411625,-0.0009855276439338923,9.591349225956947e-05,-0.0033581273164600134,0.5516746640205383,-0.014388259500265121,-9.785078048706055
1694507007926455297,-0.0018410488264635205,0.0015746845165267587,0.000830357545055449,0.5705987811088562,-0.0033116433769464493,-9.754326820373535
1694507007936417396,-0.0014849749859422445,0.0023529953323304653,0.0014261362375691533,0.4271300435066223,0.07133159041404724,-9.839096069335938
1694507007946383984,0.002657848410308361,-0.0024293032474815845,0.0017440334195271134,0.549883246421814,-0.007496267557144165,-9.77826976776123
1694507007956488087,0.0027466099709272385,0.0010606808355078101,-0.00017576142272446305,0.4817870557308197,-0.046929530799388885,-9.818355560302734
1694507007966402955,-0.0004994585760869086,0.00017405254766345024,0.0006541680777445436,0.5325648188591003,0.019304940477013588,-9.778019905090332
1694507007976409597,0.0013310359790921211,0.0018424448790028691,0.00016926380340009928,0.5551401376724243,0.0028447341173887253,-9.754938125610352
1694507007986390631,-0.0012878127163276076,0.00018699477368500084,0.0027169741224497557,0.5286698937416077,-0.03303958848118782,-9.778105735778809
1694507007996455830,0.00161655037663877,-0.0005866995197720826,0.001250161207281053,0.5232228636741638,0.045489728450775146,-9.742363929748535
1694507008006437221,6.886381015647203e-06,-0.00010244658915325999,-0.0012350052129477262,0.4907451272010803,-0.022379133850336075,-9.75041389465332
1694507008016513683,-0.002855268307030201,0.0006479857838712633,-0.001041292678564787,0.5076767802238464,0.03215792402625084,-9.723735809326172
1694507008026395462,0.002574782818555832,0.00012898579007014632,-0.0008717681048437953,0.52170729637146,0.033669762313365936,-9.79555606842041
1694507008036366248,8.06808820925653e-05,-0.00023414175666403025,0.00289900996722281,0.476889431476593,0.04826221615076065,-9.86156177520752
1694507008046378617,0.001876077731139958,0.0010423173662275076,-0.0025538145564496517,0.4717184603214264,0.08875365555286407,-9.744406700134277
1694507008056333107,-0.0003080272290389985,0.002638795180246234,0.0017234606202691793,0.4623309373855591,0.05622820928692818,-9.759102821350098
1694507008066319200,0.0011300870683044195,-0.0036892483476549387,0.00048153437091968954,0.5330699682235718,-0.0368196927011013,-9.81164836883545
1694507008076598099,0.0013936415780335665,-0.0008533342042937875,-0.0017391699366271496,0.47418174147605896,-0.04749663919210434,-9.837617874145508
1694507008086584886,0.0017956332303583622,-0.0017592445947229862,0.0011570462957024574,0.5149497985839844,-0.040965814143419266,-9.823714256286621
1694507008096668829,-0.001018119161017239,-0.0016543539240956306,0.0027775822672992945,0.5652658343315125,0.0662577897310257,-9.841104507446289
1694507008106464509,0.0013681950513273478,0.0009107294608838856,0.0014337943866848946,0.547359824180603,0.040617525577545166,-9.805275917053223
1694507008116453880,0.00016358082939404994,0.0017941001569852233,0.00188722787424922,0.4960422217845917,-0.015693403780460358,-9.823789596557617
1694507008126493380,0.0009799806866794825,0.0010088770650327206,-0.0009611963760107756,0.4836738109588623,0.04092090204358101,-9.807683944702148
1694507008136602802,0.0007088262937031686,0.0016852725530043244,0.001637820852920413,0.4793579578399658,-0.0050133951008319855,-9.831916809082031
1694507008146401065,0.0026630491483956575,0.00018716407066676766,-0.001182154635898769,0.49597737193107605,-0.0072336867451667786,-9.765019416809082
1694507008156381735,0.0018770418828353286,0.0018367087468504906,0.0006886908086016774,0.5658968687057495,0.0040025170892477036,-9.826723098754883
1694507008166557743,0.002568657509982586,0.0012889755889773369,0.0015999851748347282,0.5026527643203735,0.06283093988895416,-9.805702209472656
1694507008176418463,-0.002279676031321287,-0.0009375548106618226,0.0008188306237570941,0.47629407048225403,-0.009373676031827927,-9.79153823852539
1694507008186449088,-0.0008445518906228244,0.0010420395992696285,0.00016105981194414198,0.4633936882019043,0.05229857936501503,-9.851774215698242
1694507008196594922,0.002085138577967882,0.0018433933146297932,0.0003817026736214757,0.46342799067497253,0.04506000131368637,-9.823140144348145
1694507008206424309,-0.0016613692278042436,0.0012395706726238132,0.0023394364397972822,0.4554014503955841,0.043744802474975586,-9.861133575439453
1694507008216446984,0.0001776315039023757,0.001981680514290929,-0.00014369226119015366,0.4035974144935608,0.024418558925390244,-9.84461498260498
1694507008226421451,0.0008777776383794844,0.0038470886647701263,0.004645683337002993,0.5256015658378601,-0.014743614941835403,-9.857909202575684
1694507008236506441,0.0012422373984009027,0.0014470145106315613,-0.0014951236080378294,0.543084442615509,-0.035107459872961044,-9.737642288208008
1694507008246437522,0.0012779267271980643,-0.0014631238300353289,0.003247701097279787,0.48054981231689453,0.05396260321140289,-9.776965141296387
1694507008256429472,-0.003594035981222987,-0.000320116727380082,0.0005966068129055202,0.5521743893623352,0.06760042905807495,-9.813061714172363
1694507008266378141,-0.0015838539693504572,0.001723914872854948,-0.0016461402410641313,0.48580244183540344,0.044152796268463135,-9.750244140625
1694507008276361269,0.00043325487058609724,0.0009529244853183627,0.001181619823910296,0.5343422889709473,-0.034246839582920074,-9.789393424987793
1694507008286294924,0.001668174983933568,-0.0026876747142523527,-0.0011056158691644669,0.49031102657318115,0.02250957116484642,-9.849967002868652
1694507008296337107,0.00042826938442885876,-0.0021639482583850622,-0.0008836715715005994,0.4158459007740021,0.055306576192379,-9.819375038146973
1694507008306364454,0.0017122215358540416,0.0004497093032114208,-0.0001809628593036905,0.4136699438095093,0.06898558139801025,-9.743131637573242
1694507008316356893,-0.0007458437466993928,0.0002754727902356535,-0.00031538360053673387,0.49458977580070496,0.019639650359749794,-9.85206413269043
1694507008326464371,0.000948711356613785,0.000386785133741796,-5.219952072366141e-05,0.5276735424995422,0.04856015369296074,-9.824084281921387
1694507008337369791,0.0019225688884034753,-0.0021007207687944174,0.0009178980835713446,0.5439707636833191,-0.06621292233467102,-9.788496017456055
1694507008346500031,0.001223369617946446,-0.0006559946923516691,0.0034214297775179148,0.5112562775611877,0.03770958259701729,-9.822914123535156
1694507008356414338,-0.0015126366633921862,-0.0004061533836647868,0.0027188232634216547,0.5052822232246399,0.01850919798016548,-9.811237335205078
1694507008366381872,-0.0020134318619966507,0.0015297774225473404,0.001116209547035396,0.40648791193962097,-0.04786335304379463,-9.750153541564941
1694507008376613779,0.0017386397812515497,0.00027276473701931536,0.0029597508255392313,0.5495040416717529,0.06183991581201553,-9.855375289916992
1694507008386357591,0.0009356517111882567,-0.002111577894538641,-0.0013379855081439018,0.502535879611969,0.050097886472940445,-9.750494956970215
1694507008396399291,-0.0024108809884637594,-0.0029151011258363724,-0.0016452653799206018,0.49081113934516907,0.014672406017780304,-9.825586318969727
1694507008406643123,-0.0002274456201121211,-0.0008473503403365612,0.0006540443864651024,0.5006392002105713,0.073085717856884,-9.77770709991455
1694507008416468210,0.00233997730538249,-0.0012188819237053394,0.0012311635073274374,0.48307251930236816,0.02286871150135994,-9.749394416809082
1694507008426385483,-0.0001013873697957024,-0.0010091103613376617,-0.001421407563611865,0.4650513827800751,0.008482346311211586,-9.82740306854248
1694507008436748617,0.001480232342146337,0.002065319800749421,0.0002553594240453094,0.49207475781440735,-0.060463711619377136,-9.776118278503418
1694507008446582549,-0.001614457112737,0.0010159453377127647,0.0015132543630897999,0.5293052196502686,0.015998227521777153,-9.841065406799316
1694507008456407870,0.0014255999121814966,-6.152682180982083e-05,-0.0032889205031096935,0.45650771260261536,0.030528005212545395,-9.803753852844238
1694507008466381858,-0.0006196241010911763,0.0005759095656685531,0.00017487055447418243,0.4046475887298584,0.06364154815673828,-9.705892562866211
1694507008476424154,0.0004848336102440953,-0.0016926198732107878,0.0029128268361091614,0.3897015154361725,-0.010875103063881397,-9.782360076904297
1694507008486528852,0.0006900542648509145,0.002553181955590844,0.0007283061859197915,0.5953940749168396,-0.0006898809224367142,-9.850399017333984
1694507008496552804,0.001664956216700375,-0.0026096045039594173,0.003010995453223586,0.4938337504863739,0.0013063186779618263,-9.739089012145996
1694507008506392266,-0.0020547835156321526,-0.0007392144179902971,-0.0007384243072010577,0.4939790964126587,0.07597918063402176,-9.756299018859863
1694507008516422351,0.0003453509707469493,-0.0005427295109257102,-0.001740042818710208,0.4429313540458679,-0.04550487920641899,-9.804451942443848
1694507008526494443,0.0016311273211613297,0.0011370163410902023,0.001870781066827476,0.5067665576934814,-0.008274048566818237,-9.789380073547363
1694507008537342802,-0.0014911525649949908,-0.00014238071162253618,-0.003121442859992385,0.475397527217865,0.09383349865674973,-9.783498764038086
1694507008546680261,0.0002620042650960386,0.0010102721862494946,-0.000163963544764556,0.5053117275238037,-0.04397334158420563,-9.790886878967285
1694507008556434510,0.00025099964113906026,0.0015565184876322746,-0.001392532722093165,0.43129149079322815,0.005381901748478413,-9.764866828918457
1694507008566612985,-0.0008738813921809196,-0.0008720053592696786,0.0032710141967982054,0.49547338485717773,-0.01460487861186266,-9.884791374206543
1694507008576485073,-0.0006701656384393573,0.0014348524855449796,0.0004507873672991991,0.5106307864189148,0.08953416347503662,-9.8317289352417
1694507008586455267,-0.0016901380149647593,-0.001979595748707652,-0.0015836572274565697,0.46556299924850464,0.031059298664331436,-9.842276573181152
1694507008596446697,-0.0005731501732952893,-0.0006926799542270601,-0.004538624547421932,0.4940505623817444,-0.0445859432220459,-9.811479568481445
1694507008606617421,-0.0003227311826776713,0.00020217307610437274,0.0003260050143580884,0.4599751830101013,0.033151205629110336,-9.78249454498291
1694507008616486083,0.000598995597101748,0.0014894083142280579,0.0010730024660006166,0.5816208124160767,0.00978079903870821,-9.797953605651855
1694507008626491366,-0.000181732713826932,-0.0021411366760730743,-0.0012734963092952967,0.42870038747787476,-0.00019810814410448074,-9.898066520690918
1694507008636468594,-0.0014337203465402126,0.0026906731072813272,0.0009778649546205997,0.42317137122154236,0.053997211158275604,-9.807541847229004
1694507008646853840,0.0009432061342522502,-0.0016663132701069117,2.3664933905820362e-05,0.5652682185173035,0.03353104740381241,-9.900527954101562
1694507008656486293,-0.001332959276624024,0.00022034299036022276,0.00040761366835795343,0.5214480757713318,-8.190330117940903e-05,-9.81116771697998
1694507008666485954,0.0007399827591143548,-0.0029560173861682415,0.002510919002816081,0.5000330805778503,0.06209665164351463,-9.707429885864258
1694507008676572767,0.0004232633800711483,-0.003826862433925271,-0.0007320432923734188,0.4779812693595886,0.0035500116646289825,-9.795677185058594
1694507008686490943,0.0015152510022744536,-0.0006079727900214493,0.0028452565893530846,0.5424531698226929,-0.006022335961461067,-9.789793014526367
1694507008696410747,-0.001673977472819388,0.00212084804661572,0.0017736993031576276,0.5030774474143982,-0.07143157720565796,-9.782769203186035
1694507008706473038,6.214206223376095e-05,-0.0006170933484099805,0.00046359110274352133,0.5396810173988342,0.010364308953285217,-9.884005546569824
1694507008716462242,0.0016444427892565727,0.0004736560513265431,0.003168862545862794,0.5163261890411377,0.06573238223791122,-9.757804870605469
1694507008726521736,0.0012872063089162111,3.630492210504599e-05,-0.00072704185731709,0.4906478226184845,-0.04297329857945442,-9.801819801330566
1694507008736460971,-0.0004328993381932378,-0.00011331337736919522,-0.0017065908759832382,0.4796406924724579,0.008526992052793503,-9.736523628234863
1694507008746437897,-0.0010286793112754822,-0.0009760019602254033,0.0026241864543408155,0.5127723217010498,0.04411943256855011,-9.815495491027832
1694507008756345902,-0.0009162283386103809,-0.0013522019144147635,-0.0011284614447504282,0.4669497311115265,-0.0030601350590586662,-9.84577751159668
1694507008766391298,0.0003325797733850777,-0.0008129451307468116,-0.0010971779702231288,0.4767436683177948,0.01283784955739975,-9.738204956054688
1694507008776321822,0.0008492406341247261,0.0010417455341666937,9.8233918834012e-05,0.5101991295814514,0.08061648905277252,-9.79093074798584
1694507008786384258,-0.00039938848931342363,0.0003326036094222218,0.0013463444774970412,0.5297734141349792,-0.00891194399446249,-9.840688705444336
1694507008796364330,0.0016310041537508368,0.0019950498826801777,0.0018289271974936128,0.463924378156662,-0.0016478896141052246,-9.80583381652832
1694507008806837839,0.002245208714157343,-0.001239378354512155,0.00037700412212871015,0.43504366278648376,0.034976087510585785,-9.765485763549805
1694507008816415577,0.001132285688072443,-0.001517116790637374,0.0015552715631201863,0.5346230268478394,0.030218500643968582,-9.832859992980957
1694507008826471834,0.0016991709126159549,0.0018524511251598597,0.0028443459887057543,0.4802044928073883,-0.002488276921212673,-9.70370101928711
1694507008836464477,-0.00073417485691607,0.00046242563985288143,-0.0002945912128780037,0.47873687744140625,-0.02897447906434536,-9.812796592712402
1694507008846454604,0.0003833578375633806,-0.002510216785594821,-0.0010189232416450977,0.40455949306488037,-0.022110268473625183,-9.758171081542969
1694507008856385871,0.002190997591242194,0.0024772605393081903,-0.0008426066488027573,0.5098654627799988,0.01620810106396675,-9.735199928283691
1694507008866372734,-0.0010171718895435333,-0.0007509602583013475,-0.002207225188612938,0.49371859431266785,-0.054204992949962616,-9.815479278564453
1694507008876434579,-0.0011104699224233627,0.0025830124504864216,0.0004985956475138664,0.544714629650116,0.02140967920422554,-9.823258399963379
1694507008887822109,-0.0018009416526183486,0.0007926987600512803,9.415438398718834e-05,0.4914129376411438,-0.0021058302372694016,-9.826498031616211
1694507008900120304,0.0006510125240311027,4.143586920690723e-05,-0.0005808965652249753,0.5666652917861938,0.018622972071170807,-9.735230445861816
1694507008906464503,0.0012775292852893472,0.002411673543974757,0.0005925495061092079,0.441154807806015,0.04837489128112793,-9.821228981018066
1694507008916381413,0.001956540858373046,-0.001739347237162292,0.00042547949124127626,0.5045927166938782,0.059551119804382324,-9.85916519165039
1694507008926389216,-0.0008884238195605576,-0.0007974390173330903,-0.0014689016388729215,0.5941372513771057,0.04674653336405754,-9.821965217590332
1694507008936419926,0.00020744952780660242,-8.603437163401395e-05,0.00043898404692299664,0.4777631461620331,0.000738147646188736,-9.82453441619873
1694507008946355386,-0.0012870174832642078,-0.00024270801804959774,-0.0001405608345521614,0.5067991614341736,-0.03304191306233406,-9.848170280456543
1694507008956379922,-0.00024017586838454008,0.0003314674540888518,0.0008750812849029899,0.39996835589408875,0.11150053888559341,-9.825908660888672
1694507008966411248,0.00021483897580765188,-0.0004775011329911649,0.0005917425150983036,0.49282753467559814,-0.03349144756793976,-9.7755126953125
1694507008976394192,0.001822846825234592,-0.00045232195407152176,0.0006657039048150182,0.44077324867248535,0.06548205763101578,-9.819979667663574
1694507008986365484,-9.33565097511746e-05,-0.0006144966464489698,-0.0025202524848282337,0.4148576855659485,0.02210676483809948,-9.728854179382324
1694507008996467094,-0.0016318332636728883,-0.0005696013104170561,-1.8810169422067702e-06,0.4657353162765503,0.02835976332426071,-9.778326988220215
1694507009006349656,0.0010945318499580026,0.00025134487077593803,-0.0012030333746224642,0.5317808985710144,-0.0661267638206482,-9.783265113830566
1694507009016408100,-0.0013136405032128096,-0.0003549027896951884,-0.001133997575379908,0.49712657928466797,-0.039724159985780716,-9.731627464294434
1694507009026565079,0.0005305085796862841,0.000832688994705677,0.0007618080708198249,0.5300586223602295,0.016477761790156364,-9.814715385437012
1694507009036382021,-0.001732224365696311,0.0001714317622827366,-0.0008681430481374264,0.429838627576828,0.0143737206235528,-9.757843971252441
1694507009046468726,-0.0011714319698512554,0.002377674914896488,0.0011917343363165855,0.4360784590244293,-0.011974637396633625,-9.81475830078125
1694507009056398709,0.0029779626056551933,0.001193680102005601,0.0002105188905261457,0.519723653793335,0.045152559876441956,-9.73939323425293
1694507009066460216,0.001561374170705676,0.0014102609129622579,-0.0022659844253212214,0.47337472438812256,0.008707934990525246,-9.809467315673828
1694507009076577202,0.0015262054512277246,-0.0017978294054046273,0.0011081693228334188,0.46327313780784607,0.05605907738208771,-9.741134643554688
1694507009086724925,0.0017167539335787296,0.00021812280465383083,-0.00011877612269017845,0.5016875863075256,-0.029418282210826874,-9.802154541015625
1694507009098107684,0.0004759716393891722,0.0008137974073179066,-0.0021717241033911705,0.5119580030441284,-0.029009312391281128,-9.84520435333252
1694507009106615471,-0.0016571287997066975,0.000564251677133143,0.001203498337417841,0.492045521736145,0.09873561561107635,-9.737373352050781
1694507009116469567,0.00024004392616916448,-0.0003438194689806551,-0.002078044693917036,0.4438983201980591,0.06066162884235382,-9.76871109008789
1694507009126495650,0.0001088842109311372,-0.00012695620534941554,0.0003539705940056592,0.4687744677066803,0.025366026908159256,-9.772403717041016
1694507009136528078,0.002516759093850851,0.0006070618983358145,-0.0005296899471431971,0.5205286145210266,0.0843128114938736,-9.753485679626465
1694507009146500339,0.0024146789219230413,0.0014173289528116584,-0.001162892789579928,0.5133477449417114,0.023663580417633057,-9.806278228759766
1694507009156634690,9.059624971996527e-06,0.0014471353497356176,-0.0010798379080370069,0.4576289653778076,0.10218524932861328,-9.756275177001953
1694507009166504965,0.00034569515264593065,5.1231196266599e-05,7.0212172431638464e-06,0.5633211135864258,-0.019720379263162613,-9.866024017333984
1694507009176542706,-0.0016095798928290606,-0.002214462962001562,0.0037923126947134733,0.5013197660446167,0.06653270870447159,-9.83096694946289
1694507009186461889,-0.00021570449462160468,0.0014067543670535088,-0.00130925711710006,0.4845725893974304,0.0310199111700058,-9.772350311279297
1694507009196497900,0.0020748868118971586,-0.0031705936416983604,0.0013875862350687385,0.48289617896080017,-0.02352219820022583,-9.709726333618164
1694507009206530119,-0.001419796608388424,-0.0014392724260687828,0.0021421744022518396,0.5358128547668457,0.012139716185629368,-9.716618537902832
1694507009216476561,0.0004977062926627696,-0.002131387125700712,0.0014519913820549846,0.4212435185909271,-0.007201502099633217,-9.863446235656738
1694507009226622123,-0.003927440382540226,-0.00039474020013585687,-0.0007448979304172099,0.431793749332428,-0.016760369762778282,-9.866898536682129
1694507009236586945,3.546400694176555e-05,0.00109958671964705,-0.00045245682122185826,0.5394389629364014,-0.013103128410875797,-9.761964797973633
1694507009246434892,0.0012107553193345666,-0.0003767508314922452,0.0008712498820386827,0.46966373920440674,0.042123373597860336,-9.797613143920898
1694507009256441265,0.0018522418104112148,-0.00032797345193102956,-0.0003955407883040607,0.5029469132423401,0.025819625705480576,-9.843816757202148
1694507009266426641,-0.0009027115302160382,-0.0005846641724929214,9.31883550947532e-05,0.47818946838378906,0.04689575359225273,-9.81226921081543
1694507009276272040,-0.0002873635967262089,0.0008035274804569781,-0.0017771495040506124,0.45868173241615295,0.014115750789642334,-9.80988597869873
1694507009286426265,-0.002137598814442754,0.0007812472758814692,-4.171041655354202e-05,0.4581705629825592,0.036539167165756226,-9.806804656982422
1694507009296334994,-0.002875776495784521,-0.001365366275422275,-0.0011301850900053978,0.4575248956680298,0.049848735332489014,-9.817622184753418
1694507009306413920,-0.0007027726387605071,-1.4813736925134435e-05,0.00014277893933467567,0.46266794204711914,0.01908993348479271,-9.81379508972168
1694507009316451351,0.00025123293744400144,0.00030128078651614487,0.00035699649015441537,0.49735355377197266,-0.015294940210878849,-9.82528305053711
1694507009326583322,-0.0023154374212026596,0.0010234251385554671,-0.003206835361197591,0.41558387875556946,-0.05196690186858177,-9.684803009033203
1694507009336520671,0.0008393432945013046,0.0017713187262415886,-0.0009615067974664271,0.47713297605514526,0.021132364869117737,-9.729043960571289
1694507009346603927,0.0014731161063537002,-0.0001793635601643473,-0.0001816958683775738,0.4700431823730469,-0.0041931672021746635,-9.816123008728027
1694507009356586737,0.0018421862041577697,-0.0003186421236023307,-0.0005374993779696524,0.49421873688697815,0.04103589430451393,-9.740615844726562
1694507009366583225,-0.00040085570071823895,0.0024520244915038347,0.00047603860730305314,0.45856720209121704,0.004643745720386505,-9.796751022338867
1694507009376567238,-0.0007622825214639306,-0.0016910845879465342,0.0008481472614221275,0.44039055705070496,0.012112029828131199,-9.79431438446045
1694507009386482958,0.0005160380969755352,0.0010888479882851243,0.0011916548246517777,0.47543975710868835,0.010189957916736603,-9.777761459350586
1694507009396474317,-0.0010698230471462011,-0.0022423758637160063,0.0002923512947745621,0.43304622173309326,0.06727960705757141,-9.80510425567627
1694507009406835676,0.0021618029568344355,-0.0012871293583884835,-0.0022537661716341972,0.5267308354377747,0.04034377261996269,-9.78322982788086
1694507009416478319,0.002813495695590973,-0.003603335004299879,-0.0004083779058419168,0.4875645041465759,0.008699757978320122,-9.797950744628906
1694507009426540812,0.0016518696211278439,2.193426735175308e-05,-0.0027460355777293444,0.5339438915252686,-0.05418093502521515,-9.820780754089355
1694507009436676148,-0.00027561309980228543,0.0018846327438950539,-0.003184019820764661,0.44246259331703186,0.04696621745824814,-9.815226554870605
1694507009446580729,-0.002641237573698163,0.0005473473574966192,0.00040849880315363407,0.5270617008209229,0.06208253279328346,-9.873031616210938
1694507009456421534,0.001170969451777637,0.0029760338366031647,-0.0017469215672463179,0.4495302736759186,-0.018626239150762558,-9.771296501159668
1694507009466470784,-0.00025111946160905063,-0.0017500522080808878,0.003661495866253972,0.5359393954277039,-0.05359428748488426,-9.860737800598145
1694507009476461216,0.0006085766362957656,-4.052383155794814e-05,0.002961902879178524,0.4823034107685089,0.03788425028324127,-9.792155265808105
1694507009486628282,0.0010150878224521875,0.0015278356149792671,-0.0017905638087540865,0.5340619087219238,0.028214391320943832,-9.862922668457031
1694507009496585252,0.0004884279333055019,0.0007977917557582259,0.0004196840163785964,0.5483148097991943,0.009359980002045631,-9.784085273742676
1694507009506568641,-0.00043504498898983,0.00024791384930722415,0.0001680006243987009,0.48869195580482483,0.017009742558002472,-9.798123359680176
1694507009516466211,-0.0004287747433409095,-0.0002739340125117451,-0.0008232377585954964,0.50638747215271,0.03676151856780052,-9.835600852966309
1694507009526538868,0.0022090317215770483,-0.0031070860568434,-0.0007057756884023547,0.5352272391319275,-0.009924335405230522,-9.775055885314941
1694507009536710209,0.0013931766152381897,-0.001164472778327763,-0.0004639551625587046,0.5097166299819946,-0.0034827589988708496,-9.773831367492676
1694507009546526506,-0.0004391000256873667,0.004256840795278549,-0.0014871960738673806,0.47907572984695435,0.04860945791006088,-9.729310035705566
1694507009556498097,-0.0016453590942546725,0.0013818357838317752,-0.0006027830531820655,0.46139684319496155,0.07334345579147339,-9.795645713806152
1694507009566515917,-0.0008918449748307467,-0.00072068115696311,0.0007519325008615851,0.45704689621925354,0.013144705444574356,-9.837069511413574
1694507009576581348,-0.0015541039174422622,-0.00045051545021124184,-0.0013944150414317846,0.539428174495697,-0.04466870427131653,-9.8614501953125
1694507009586489207,-0.0014457465149462223,-0.0005462188273668289,0.000800002075266093,0.42643678188323975,0.028231799602508545,-9.71680736541748
1694507009596583162,0.0013827867805957794,-0.001929667079821229,-0.0014647573698312044,0.5661274194717407,0.002504773437976837,-9.771711349487305
1694507009606541961,0.0002849394513759762,0.00018619719776324928,9.44893472478725e-05,0.48278599977493286,0.028179094195365906,-9.76783561706543
1694507009616565718,-4.320534935686737e-05,0.0009682608069851995,0.0018376606749370694,0.48268941044807434,0.04414017125964165,-9.780914306640625
1694507009626500657,0.0032235647086054087,0.0013124479446560144,0.000417868111981079,0.5107439160346985,-0.014700548723340034,-9.761211395263672
1694507009636437679,0.0026555692311376333,-0.0004471261636354029,-0.002397487172856927,0.4445452392101288,0.05081138014793396,-9.847115516662598
1694507009646464202,2.512837636459153e-05,0.00013294944074004889,-0.0029171996284276247,0.4787518382072449,0.07236079126596451,-9.8030366897583
1694507009656643481,0.0017816006438806653,-0.0016962531954050064,-0.0012932512909173965,0.536150336265564,-0.019038541242480278,-9.764050483703613
1694507009666542859,0.0008666704525239766,-0.0008421062375418842,0.00013811487588100135,0.4557526409626007,0.0013643275015056133,-9.839957237243652
1694507009677309645,0.00242839683778584,0.0012197410687804222,0.0005577140254899859,0.4384281635284424,0.10289391130208969,-9.7590913772583
1694507009686412338,0.0002340035862289369,0.0016926219686865807,0.0005729121621698141,0.5097956657409668,-0.030718926340341568,-9.781694412231445
1694507009696442974,0.0015898413257673383,-0.0005723328213207424,-0.0020461406093090773,0.4249536395072937,0.06032085046172142,-9.769033432006836
1694507009706545558,-0.002657876117154956,0.0025365916080772877,-0.00037642550887539983,0.4757331311702728,0.013305519707500935,-9.756187438964844
1694507009716625750,0.0023261539172381163,-0.0003443411842454225,-0.0003213464515283704,0.4741034507751465,-0.0005335807800292969,-9.771992683410645
1694507009726462275,0.0025179588701575994,-0.00021920324070379138,0.0003696255444083363,0.446058988571167,0.03653789684176445,-9.814911842346191
1694507009736496830,0.0007087847916409373,0.0006840673740953207,0.0012229114072397351,0.5508267879486084,-0.07293868809938431,-9.801064491271973
1694507009746395585,0.0022071138955652714,-0.0008462638943456113,0.0004351834359113127,0.4614022374153137,0.050081636756658554,-9.786051750183105
1694507009756396107,-0.0017742164200171828,0.002285551279783249,0.0020308862440288067,0.4383710026741028,-0.021717704832553864,-9.793500900268555
1694507009766310717,0.0003516459546517581,0.0003476364363450557,-0.0005790800787508488,0.474956214427948,0.007214519660919905,-9.784139633178711
1694507009776487437,0.0010138425277546048,-1.9602226529968902e-05,-0.0004971424350515008,0.5114074349403381,0.004900131840258837,-9.778796195983887
1694507009786623732,0.0011182193411514163,0.0016382139874622226,0.00043454515980556607,0.5007020235061646,0.013673458248376846,-9.799988746643066
1694507009796290550,0.00018082903989125043,-0.00021333088807296008,-0.002205871744081378,0.5110837817192078,0.023036761209368706,-9.83680248260498
1694507009806311075,-0.00022068026009947062,0.00017383287195116282,-0.002212743042036891,0.5241158604621887,0.0205715149641037,-9.839973449707031
1694507009816352075,-0.002662291983142495,-0.0013629936147481203,0.00014543721044901758,0.44767168164253235,-0.0022116070613265038,-9.739398956298828
1694507009826407432,-0.0006614808226004243,-0.0017922885017469525,-0.0025385557673871517,0.5348226428031921,-0.029133368283510208,-9.778840065002441
1694507009837680033,0.001453002798371017,0.00040831786463968456,0.0016007954254746437,0.5396996736526489,0.04564772918820381,-9.834424018859863
1694507009846599057,-0.002608869457617402,0.0009577098535373807,-0.0005890820757485926,0.5664313435554504,-0.0972815677523613,-9.836685180664062
1694507009857014332,0.0021796501241624355,-0.000971576722804457,-0.0013668420724570751,0.5256446599960327,0.03817914426326752,-9.679778099060059
1694507009866458461,0.0015254408353939652,0.0029243635945022106,0.0007063457160256803,0.4620667099952698,-0.018621377646923065,-9.779699325561523
1694507009876643865,0.0024369508028030396,-0.004017917439341545,-0.0021817213855683804,0.4898500144481659,-0.014885230921208858,-9.825777053833008
1694507009886333464,-0.0018905909964814782,-0.001914538093842566,0.00036991373053751886,0.5097505450248718,0.019913308322429657,-9.8012056350708
1694507009896456651,-0.002167605562135577,0.00021496019326150417,0.001093887141905725,0.5314616560935974,-0.03438176214694977,-9.824604988098145
1694507009906399002,-0.0007089708233252168,-0.0008544542943127453,-0.0011092775966972113,0.5806800127029419,-0.08316999673843384,-9.75695514678955
1694507009916402374,-0.0027946068439632654,0.0015788525342941284,-0.0021347133442759514,0.4699210226535797,0.045602671802043915,-9.725499153137207
1694507009926387014,-0.0019099764758720994,0.0011032989714294672,-0.00015018743579275906,0.4573422074317932,-0.02589418739080429,-9.76343059539795
1694507009937153292,0.0008164766477420926,-0.0017343013314530253,-0.0003161930071655661,0.4379202127456665,0.06970144808292389,-9.832207679748535
1694507009946515349,0.0038815035950392485,0.0006375625380314887,-0.00018803146667778492,0.5000155568122864,0.00018925964832305908,-9.761458396911621
1694507009956327333,-0.002147240564227104,-0.00045371599844656885,-0.0012419507838785648,0.5047129988670349,-0.08059147745370865,-9.810283660888672
1694507009966395328,-0.0019270654302090406,0.0019351850496605039,0.00032968749292194843,0.445896714925766,0.030361728742718697,-9.736675262451172
1694507009976782669,-0.0020433589816093445,-0.0015467775519937277,-0.0016876861918717623,0.49695372581481934,-0.009493246674537659,-9.842220306396484
1694507009986357231,0.0017337806057184935,0.002189219230785966,-0.00046333755017258227,0.503434419631958,-0.012089814990758896,-9.745274543762207
1694507009996360415,0.0028925847727805376,0.002476830268278718,0.004798892419785261,0.4644228219985962,-0.007058707065880299,-9.769648551940918
1694507010006407210,0.0004837775486521423,0.002039012499153614,0.0015259512001648545,0.4452093541622162,-0.012109706178307533,-9.788171768188477
1694507010016350072,0.0011983521981164813,0.001936660846695304,0.00046880909940227866,0.4772544205188751,0.07260119915008545,-9.787175178527832
1694507010026483357,-0.002833710750564933,-0.0022253720089793205,-0.0027664341032505035,0.4729972779750824,0.027382615953683853,-9.799137115478516
1694507010036461749,0.000274239806458354,0.002036544494330883,0.003970276098698378,0.4933522045612335,-0.06359061598777771,-9.78634262084961
1694507010046303224,0.0018310783198103309,-0.0017183420713990927,-0.0003902341122739017,0.5234784483909607,0.008157046511769295,-9.696283340454102
1694507010056392584,-0.00024548423243686557,-8.877721847966313e-05,-0.0019313367083668709,0.5403092503547668,-0.040619224309921265,-9.810989379882812
1694507010066385058,-0.00388984102755785,-0.0016724641900509596,0.000730261905118823,0.49118682742118835,-0.020944083109498024,-9.866107940673828
1694507010076347389,-0.0005401914822869003,-4.99161469633691e-05,0.00025876221479848027,0.4816006124019623,0.02684074081480503,-9.742047309875488
1694507010086363550,0.0007778158760629594,0.0034984643571078777,-0.0005549432244151831,0.5154212117195129,0.012899413704872131,-9.843558311462402
1694507010096364157,-0.0006718942895531654,0.0003460808948148042,-0.00025505144731141627,0.45694538950920105,0.014646762982010841,-9.799447059631348
1694507010106603080,-0.0009556715376675129,-0.0005792290903627872,0.001153689925558865,0.4924975633621216,0.06900420784950256,-9.77643871307373
1694507010116585793,-0.0012427420588210225,5.7725454098545015e-05,-0.0022153318859636784,0.46863827109336853,-0.008479734882712364,-9.753015518188477
1694507010127045206,-0.0011052051559090614,-0.0016793441027402878,0.000728323997464031,0.5310784578323364,0.09916874766349792,-9.788818359375
1694507010136527389,0.003403599839657545,0.00131157785654068,0.000633863965049386,0.469108909368515,-0.06983640044927597,-9.746725082397461
1694507010146482959,-0.00018874360830523074,-0.0013158803340047598,0.0004500143404584378,0.5236480236053467,-0.010980509221553802,-9.83240032196045
1694507010156434236,0.0013488318072631955,0.0004612174816429615,-0.0006762344273738563,0.4546239674091339,0.0102279307320714,-9.843996047973633
1694507010166502494,0.0008058178354986012,-3.888086212100461e-06,0.0013955901376903057,0.5218617916107178,-0.03384727984666824,-9.785475730895996
1694507010176369052,0.003824001643806696,-0.00046372890938073397,0.0009752921178005636,0.4082590937614441,0.11017696559429169,-9.745048522949219
1694507010186592668,-0.0005573896924033761,-0.0009615904418751597,-0.000799917324911803,0.4758028984069824,-0.011742383241653442,-9.82570743560791
1694507010196365243,-0.0005033307243138552,0.0013507007388398051,0.001841894700191915,0.4027537703514099,0.004682230297476053,-9.838239669799805
1694507010206464981,0.0006716906209476292,-0.0006052709650248289,-0.0012268874561414123,0.48473554849624634,-0.01845800131559372,-9.769697189331055
1694507010216412365,-2.047868474619463e-05,0.0009985114447772503,-0.0009249844588339329,0.48985958099365234,0.02403867430984974,-9.721953392028809
1694507010226495582,-0.0005243165069259703,-0.0002648017252795398,0.0004026210808660835,0.47322091460227966,0.0444539412856102,-9.738574981689453
1694507010236444152,0.0019008440431207418,-0.0012209832202643156,-0.00011542740685399622,0.48581835627555847,0.0684763640165329,-9.857429504394531
1694507010246484736,-0.0023669246584177017,0.0013263574801385403,0.0018764344276860356,0.484483003616333,-0.03533226251602173,-9.806997299194336
1694507010256336422,-0.001068789279088378,5.9147128922631964e-05,-0.00045889068860560656,0.4543537497520447,0.02787131629884243,-9.758469581604004
1694507010266532509,-0.0007753539248369634,-0.0011668624356389046,0.00045775630860589445,0.48018738627433777,0.012170173227787018,-9.80762004852295
1694507010276356381,-0.0006722257821820676,0.0010463226353749633,0.0012102620676159859,0.5055368542671204,-0.03966908901929855,-9.787601470947266
1694507010286453634,-0.0007578181102871895,0.0015736303757876158,0.004430132918059826,0.5163365006446838,0.028946828097105026,-9.805557250976562
1694507010296458353,-0.0011925124563276768,0.0022054954897612333,-0.0014012281317263842,0.5309752821922302,-0.005194748751819134,-9.772034645080566
1694507010306372825,-0.0010980787919834256,0.0016121016815304756,0.0008202734752558172,0.4527852535247803,0.022797785699367523,-9.796430587768555
1694507010316358497,-0.0024510673247277737,0.00011373267625458539,0.0016478068428114057,0.4324922561645508,0.06673700362443924,-9.815107345581055
1694507010326301982,0.000208987868973054,0.0010767417261376977,0.0007091414881870151,0.526897668838501,0.05241534113883972,-9.760852813720703
1694507010336259835,0.0006892253877595067,-0.0004886293318122625,0.0053273336961865425,0.5030124187469482,0.03564492613077164,-9.803984642028809
1694507010346348073,0.0017426337581127882,6.70476583763957e-05,-0.0009271177113987505,0.510478138923645,0.04843714088201523,-9.764155387878418
1694507010356413807,-0.001404329901561141,0.00045786864939145744,-0.0025300488341599703,0.44567736983299255,-0.08033204078674316,-9.805999755859375
1694507010366590102,-5.3242300054989755e-05,-0.0013056689640507102,0.00043699462548829615,0.5253413319587708,0.0019136583432555199,-9.718282699584961
